pitch,roll,acceleration_x,acceleration_y,acceleration_z,angular_velocity_x,angular_velocity_y,angular_velocity_z,distance,time,jerk_x,jerk_y,jerk_z,is_running_backoff
-1.0,0.0,330.3223,148.4057,9785.2,0.04310766,-0.01398024,-0.05562783,2000.0,2024-01-12 16:19:13.415401,0,0,0,False
-5.0,-9.0,842.5613,-1376.343,8633.859,-1.706892,0.9660198,-3.555628,2000.0,2024-01-12 16:19:13.596012,2836.1450852938087,-8442.169635293532,-6374.700322793187,False
-2.0,-2.0,478.728,-411.7061,10192.12,-0.3068923,0.5460198,9.534372,2000.0,2024-01-12 16:19:13.836699,-1511.6449995222008,4007.847951904341,6474.221707030294,False
-2.0,2.0,464.3662,402.1315,8978.544,-0.5868923,-0.8539803,3.794372,2000.0,2024-01-12 16:19:14.016016,-80.09168121260124,4538.54124260388,-6767.768811657573,False
-7.0,4.0,1249.48,660.6447,9174.822,2.633108,3.13602,13.24437,2000.0,2024-01-12 16:19:14.196048,4360.968050124423,1435.9291681478844,1090.2395129754725,False
-3.0,0.0,691.762,-119.682,10139.46,2.633108,1.03602,0.7843722,2000.0,2024-01-12 16:19:14.376620,-3088.618390448132,-4321.415834127107,5342.12391732937,False
-26.0,-38.0,12523.52,-15809.99,19596.73,-13.95689,-62.80398,-80.69563,2000.0,2024-01-12 16:19:14.556137,65908.84428772762,-87402.90891670425,52681.751588986,True
38.0,10.0,-10438.66,2467.843,13033.37,-6.116892,38.90602,-53.18563,2000.0,2024-01-12 16:19:14.676172,-191295.7054192527,152270.86266505602,-54678.718707043765,True
38.0,10.0,-10438.66,2467.843,13033.37,-6.116892,38.90602,-53.18563,2000.0,2024-01-12 16:19:14.676172,-191295.7054192527,152270.86266505602,-54678.718707043765,True
-2.0,-11.0,399.7379,-2187.787,10414.73,-4.296892,5.02602,-62.56563,81.0,2024-01-12 16:19:14.914031,45566.482243682185,-19573.066396478585,-11009.211339491048,True
-2.0,-11.0,399.7379,-2187.787,10414.73,-4.296892,5.02602,-62.56563,81.0,2024-01-12 16:19:14.914031,45566.482243682185,-19573.066396478585,-11009.211339491048,True
-4.0,0.0,830.5931,117.2884,10012.6,-1.216892,-2.81398,-15.31563,82.0,2024-01-12 16:19:15.095671,2372.0281876238714,12690.351244219333,-2213.884606914772,True
-5.0,9.0,864.1041,1366.768,8576.412,4.523108,14.89602,191.7444,105.0,2024-01-12 16:19:15.275860,185.97694642847216,6934.272347368597,-7970.453246313594,True
-5.0,9.0,864.1041,1366.768,8576.412,4.523108,14.89602,191.7444,105.0,2024-01-12 16:19:15.275860,185.97694642847216,6934.272347368597,-7970.453246313594,True
0.0,1.0,-138.8311,213.034,10153.82,1.723108,2.71602,198.5344,2000.0,2024-01-12 16:19:15.455995,-5567.686457379188,-6404.829711050046,8756.810170150162,True
0.0,1.0,-138.8311,213.034,10153.82,1.723108,2.71602,198.5344,2000.0,2024-01-12 16:19:15.455995,-5567.686457379188,-6404.829711050046,8756.810170150162,False
-3.0,3.0,584.0482,670.2192,9603.284,4.453108,-2.46398,210.2244,2000.0,2024-01-12 16:19:15.696164,3009.8776278370647,1903.5978831572768,-2292.2858487148637,False
-3.0,1.0,665.4319,213.034,10079.62,-0.4468923,0.1260198,3.794372,2000.0,2024-01-12 16:19:15.875243,454.456971504197,-2552.9805281467957,2659.921040434675,False
0.0,2.0,-146.012,483.5153,9878.553,0.3231077,-0.9939802,10.86437,2000.0,2024-01-12 16:19:16.056299,-4481.728857370095,1493.9096191233655,-1110.5238158359896,False
-5.0,4.0,828.1995,797.0822,9366.313,-0.5168923,3.20602,2.884372,2000.0,2024-01-12 16:19:16.235852,5425.760081981364,1746.3751649930657,-2852.8623860364337,False
1.0,6.0,-232.1831,1136.979,9902.489,1.093108,-0.5039802,7.154372,2000.0,2024-01-12 16:19:16.416425,-5872.320889612511,1882.3234924379617,2969.3032734683447,False
-2.0,0.0,406.9188,-387.7697,9696.636,0.04310766,-1.55398,1.134372,2000.0,2024-01-12 16:19:16.595656,3565.8000011158783,-8507.170634544247,-1148.5345727022623,False
-2.0,-3.0,450.0043,-715.6984,10393.19,2.073108,0.1260198,14.57437,2000.0,2024-01-12 16:19:16.775813,239.15529232835817,-1820.2384586777086,3866.3721087717936,False
-5.0,1.0,1046.021,251.3322,10517.65,4.033108,-0.3639803,29.62437,2000.0,2024-01-12 16:19:16.955890,3309.7880351183103,5370.095014910289,691.1487863525,False
1.0,-1.0,-311.1732,-236.9704,9780.413,-7.096892,2.85602,16.11437,2000.0,2024-01-12 16:19:17.136104,-7531.014238627408,-2709.570843552665,-4090.897488541396,False
-1.0,0.0,236.9704,-93.35196,9718.179,-0.4468923,-0.2939802,8.134372,2000.0,2024-01-12 16:19:17.315996,3047.0704645009228,798.3592377648813,-345.9520156538389,False
0.0,0.0,-50.26644,-167.5548,9715.785,-2.756892,-1.41398,-0.4756279,2000.0,2024-01-12 16:19:17.496147,-1594.4226787528241,-411.89246798519014,-13.288852129603681,False
0.0,0.0,114.8947,-64.62828,9311.26,-0.3768923,-0.5739802,11.21437,2000.0,2024-01-12 16:19:17.675433,921.2160458708431,574.0912285398748,-2256.311145320882,False
0.0,0.0,148.4057,100.5329,9483.602,-0.4468923,1.45602,8.414372,2000.0,2024-01-12 16:19:17.855985,185.6030395675484,914.75685675041,954.5283353272218,False
1.0,1.0,-263.3004,208.2467,9926.425,0.1131077,-2.74398,9.884372,2000.0,2024-01-12 16:19:18.153643,-1383.1514691357195,361.87100632269255,1487.690571058055,False
-4.0,2.0,742.0284,454.7916,9342.377,-1.776892,-1.06398,-1.525628,2000.0,2024-01-12 16:19:18.276387,8190.4516717721435,2008.6106041843186,-4758.261096265388,False
0.0,-4.0,-38.29824,-746.8157,9581.741,-1.566892,2.85602,13.31437,2000.0,2024-01-12 16:19:18.455910,-4346.666666666667,-6693.333444739673,1333.333333333331,False
5.0,1.0,-864.1041,315.9605,9237.057,-1.146892,4.04602,22.97437,2000.0,2024-01-12 16:19:18.635584,-4596.134443492103,5915.024989703575,-1918.3855204425754,False
-1.0,2.0,256.1195,435.6425,9713.392,-0.7268924,-1.62398,0.1543722,2000.0,2024-01-12 16:19:18.815612,6222.49650054436,664.7965871975468,2645.893972048788,False
-6.0,0.0,1022.084,38.29824,9464.453,0.5331077,1.38602,6.524372,2000.0,2024-01-12 16:19:18.996171,4242.183995259167,-2200.633920214445,-1378.7127753255186,False
-4.0,1.0,789.9012,251.3322,9852.223,0.1131077,0.7560198,17.58437,766.0,2024-01-12 16:19:19.176240,-1289.410170545735,1183.0684904120087,2153.4522877341487,False
3.0,0.0,-600.8036,134.0438,9991.054,2.703108,5.02602,23.18437,707.0,2024-01-12 16:19:19.355761,-7746.752747589419,-653.3408347769899,773.341280407307,False
-3.0,-1.0,560.1118,-184.3103,10266.32,-0.3768923,1.52602,4.074372,663.0,2024-01-12 16:19:19.596417,4823.962003856126,-1322.8596004255037,1143.8152383485124,False
0.0,0.0,-203.4594,-122.0756,9713.392,-0.9368923,0.4760198,6.384372,607.0,2024-01-12 16:19:19.775567,-4262.1892269048285,347.3887803516607,-3086.396874127825,False
-2.0,0.0,406.9188,-40.69188,10151.43,0.9531076,0.9660198,7.434372,596.0,2024-01-12 16:19:19.955672,3389.0130757058387,451.8681880014436,2432.1257044501845,False
1.0,-3.0,-251.3322,-605.5909,9050.353,-1.286892,9.85602,17.72437,596.0,2024-01-12 16:19:20.196389,-2734.543052630267,-2346.7350457175858,-4574.155543646694,False
-2.0,0.0,416.4934,-33.51096,9474.027,2.913108,1.10602,-0.6156278,654.0,2024-01-12 16:19:20.436077,2786.2287640599443,2386.76921664831,1767.6062214211845,False
-3.0,3.0,579.2609,593.6227,10208.88,1.163108,-0.1539803,6.384372,425.0,2024-01-12 16:19:20.676165,677.9493352437439,2612.099146979441,3060.7652194195425,False
-2.0,0.0,476.3344,102.9265,9897.701,0.6731077,0.7560198,16.25437,573.0,2024-01-12 16:19:20.915947,-429.25031903979436,-2046.4263372563412,-1297.7579634834979,False
0.0,6.0,59.841,978.9988,9313.653,0.2531077,-0.4339803,11.49437,291.0,2024-01-12 16:19:21.096511,-2306.624797855608,4851.865820429321,-3234.576105979037,False
-2.0,1.0,438.0361,222.6085,9627.221,-0.2368924,0.6160198,0.8543722,287.0,2024-01-12 16:19:21.275859,2108.7221491179157,-4217.444855811049,1748.3774561188266,False
3.0,0.0,-574.4736,-110.1074,9409.399,1.163108,1.03602,4.214372,287.0,2024-01-12 16:19:21.455516,-5635.793205942435,-1851.9506615383757,-1212.4325798605125,False
0.0,0.0,143.6184,74.20284,10175.36,-6.116892,-10.65398,24.65437,373.0,2024-01-12 16:19:21.755603,2392.9460456467627,614.1893517546578,2552.4631190288187,False
-7.0,1.0,1263.842,220.2149,9553.018,-1.356892,-1.62398,9.254373,334.0,2024-01-12 16:19:21.996569,4648.886564909572,605.9446560925609,-2582.6963140028074,False
-28.0,-16.0,7348.475,-3944.719,13124.33,-52.17689,-43.48398,10.23437,267.0,2024-01-12 16:19:22.416596,30724.103946964482,-16285.563253486886,11459.472465836398,True
-28.0,-16.0,7348.475,-3944.719,13124.33,-52.17689,-43.48398,10.23437,267.0,2024-01-12 16:19:22.416596,30724.103946964482,-16285.563253486886,11459.472465836398,True
3.0,7.0,-907.1896,2010.658,15967.97,-8.986893,-26.12398,0.2943721,269.0,2024-01-12 16:19:22.537117,-68499.80169431053,49413.604268135845,23594.56028409986,True
3.0,7.0,-907.1896,2010.658,15967.97,-8.986893,-26.12398,0.2943721,269.0,2024-01-12 16:19:22.537117,-68499.80169431053,49413.604268135845,23594.56028409986,True
-6.0,14.0,916.7642,1969.966,7626.137,-0.6568923,-8.623981,-44.92563,74.0,2024-01-12 16:19:22.776189,7629.307488957302,-170.20813813411863,-34892.555380805774,True
-6.0,14.0,916.7642,1969.966,7626.137,-0.6568923,-8.623981,-44.92563,74.0,2024-01-12 16:19:22.776189,7629.307488957302,-170.20813813411863,-34892.555380805774,True
-3.0,0.0,655.8574,167.5548,10084.41,1.583108,-0.3639803,-5.025628,345.0,2024-01-12 16:19:22.956231,-1449.1440886015482,-10011.059641639173,13653.886315415291,True
-3.0,0.0,651.0701,-186.7039,11350.64,3.473108,-5.68398,198.8844,329.0,2024-01-12 16:19:23.135260,-26.74036050025392,-1978.7782984879543,7072.76474761072,True
-3.0,0.0,651.0701,-186.7039,11350.64,3.473108,-5.68398,198.8844,329.0,2024-01-12 16:19:23.135260,-26.74036050025392,-1978.7782984879543,7072.76474761072,True
-3.0,0.0,651.0701,-186.7039,11350.64,3.473108,-5.68398,198.8844,329.0,2024-01-12 16:19:23.135260,-26.74036050025392,-1978.7782984879543,7072.76474761072,True
-3.0,2.0,660.6447,418.887,9507.538,1.583108,4.32602,179.9144,332.0,2024-01-12 16:19:23.377372,39.54616045466528,2501.2841164419774,-7612.600779804384,True
-3.0,2.0,660.6447,418.887,9507.538,1.583108,4.32602,179.9144,332.0,2024-01-12 16:19:23.377372,39.54616045466528,2501.2841164419774,-7612.600779804384,True
-3.0,2.0,660.6447,418.887,9507.538,1.583108,4.32602,179.9144,332.0,2024-01-12 16:19:23.377372,39.54616045466528,2501.2841164419774,-7612.600779804384,True
18.0,-32.0,-2331.406,-3791.526,5881.173,9.563107,3.55602,46.14437,344.0,2024-01-12 16:19:23.675611,-10032.392477174346,-14117.580195749046,-12159.258178843145,True
8.0,-3.0,-1555.866,-528.9944,9845.041,-1.076892,11.39602,-7.965628,343.0,2024-01-12 16:19:23.856131,4296.1444715267,18072.964768446705,21958.054509195652,True
8.0,-3.0,-1555.866,-528.9944,9845.041,-1.076892,11.39602,-7.965628,343.0,2024-01-12 16:19:23.856131,4296.1444715267,18072.964768446705,21958.054509195652,True
8.0,-3.0,-1555.866,-528.9944,9845.041,-1.076892,11.39602,-7.965628,343.0,2024-01-12 16:19:23.856131,4296.1444715267,18072.964768446705,21958.054509195652,True
1.0,4.0,-325.535,698.9429,9900.095,-0.1668923,-0.3639803,-8.665627,338.0,2024-01-12 16:19:24.095865,5132.067207822002,5122.082391317043,229.64619119524176,True
-12.0,-8.0,2520.503,-1718.634,11365.0,4.453108,1.94602,-176.9456,356.0,2024-01-12 16:19:24.275721,15823.981407348101,-13441.736166711147,8144.877012721292,True
-12.0,-8.0,2520.503,-1718.634,11365.0,4.453108,1.94602,-176.9456,356.0,2024-01-12 16:19:24.275721,15823.981407348101,-13441.736166711147,8144.877012721292,True
0.0,3.0,-14.36184,598.41,9217.908,-1.216892,-3.58398,-206.8356,326.0,2024-01-12 16:19:24.455927,-14066.48413482348,12857.751684183655,-11914.653230192116,True
0.0,3.0,-14.36184,598.41,9217.908,-1.216892,-3.58398,-206.8356,326.0,2024-01-12 16:19:24.455927,-14066.48413482348,12857.751684183655,-11914.653230192116,False
5.0,7.0,-1146.554,1213.576,9316.047,0.2531077,2.57602,-188.0056,1273.0,2024-01-12 16:19:24.696114,-4713.794501784027,2561.196068063634,408.5941370682053,False
-2.0,0.0,387.7697,-134.0438,9071.896,1.163108,1.59602,14.50437,198.0,2024-01-12 16:19:24.935326,6414.074962794509,-5633.579419092687,-1020.646957510492,False
-1.0,0.0,327.9287,155.5866,9691.849,0.6731077,0.4760198,4.074372,73.0,2024-01-12 16:19:25.175397,-249.26375947115648,1206.4364292230216,2582.373547825433,False
0.0,2.0,40.69188,368.6206,9976.691,-0.7268924,-0.9239802,4.074372,55.0,2024-01-12 16:19:25.355919,-1591.1457883249686,1180.0999324182096,1577.8797044127616,True
1.0,21.0,-694.1556,7803.267,19974.93,61.57311,4.11602,-1.385628,57.0,2024-01-12 16:19:25.596477,-3054.7621779362985,30905.83726169988,41562.695898702186,True
-22.0,0.0,3185.935,23.9364,7681.191,9.493108,17.55602,-5.375628,100.0,2024-01-12 16:19:25.716593,32302.862233174597,-64765.14868960006,-102348.88774184955,True
7.0,3.0,-1247.086,531.3881,9811.53,-4.296892,-20.94398,-17.06563,53.0,2024-01-12 16:19:25.895808,-24735.769885333255,2831.524704963312,11887.057444968337,True
7.0,3.0,-1247.086,531.3881,9811.53,-4.296892,-20.94398,-17.06563,53.0,2024-01-12 16:19:25.895808,-24735.769885333255,2831.524704963312,11887.057444968337,True
7.0,3.0,-1247.086,531.3881,9811.53,-4.296892,-20.94398,-17.06563,53.0,2024-01-12 16:19:25.895808,-24735.769885333255,2831.524704963312,11887.057444968337,True
0.0,-3.0,-122.0756,-598.41,10757.02,-0.5868923,0.7560198,3.794372,73.0,2024-01-12 16:19:26.135989,4684.010808515245,-4703.9445251706,3936.572834653864,True
20.0,10.0,-3236.201,1517.568,8444.762,-9.616893,-2.39398,-144.6756,165.0,2024-01-12 16:19:26.315878,-17311.37201274119,11762.686990310693,-12853.804290423539,True
20.0,10.0,-3236.201,1517.568,8444.762,-9.616893,-2.39398,-144.6756,165.0,2024-01-12 16:19:26.315878,-17311.37201274119,11762.686990310693,-12853.804290423539,True
-16.0,-6.0,3781.951,-1570.228,13009.43,-2.336892,-28.36398,-146.0056,319.0,2024-01-12 16:19:26.496478,38860.19933554817,-17097.430786267996,25275.01661129568,True
-16.0,-6.0,3781.951,-1570.228,13009.43,-2.336892,-28.36398,-146.0056,319.0,2024-01-12 16:19:26.496478,38860.19933554817,-17097.430786267996,25275.01661129568,False
0.0,7.0,-86.17104,1012.51,7532.785,1.373108,15.17602,-170.9256,2000.0,2024-01-12 16:19:26.856118,-10755.538983427872,7181.453675898121,-15228.130908686464,False
-3.0,1.0,552.9308,258.5131,9653.55,-0.7968924,-3.30398,6.314372,2000.0,2024-01-12 16:19:27.035990,3553.092421277353,-4191.852539583704,11790.412070805904,False
-4.0,4.0,528.9944,361.4396,9234.663,-0.4468923,-1.69398,-0.8956279,2000.0,2024-01-12 16:19:27.274437,-100.3845718335728,431.6535750082827,-1756.730007087524,False
-5.0,0.0,816.2313,78.99012,9009.661,-0.7968924,-0.08398026,2.394372,2000.0,2024-01-12 16:19:27.455953,1582.4329535688312,-1556.0583089094073,-1239.5711672800217,False
-3.0,10.0,598.41,1859.858,10163.4,5.013108,-3.30398,0.9943722,2000.0,2024-01-12 16:19:27.635526,-1212.9958289943368,9917.236332856275,6424.902407377498,False
1.0,-2.0,-186.7039,-418.887,10019.78,0.2531077,-1.83398,7.994372,2000.0,2024-01-12 16:19:27.815442,-4363.780319704751,-12665.605060139176,-798.2614108806275,False
0.0,0.0,-93.35196,-2.39364,10694.78,-4.156892,0.4060197,0.5043722,2000.0,2024-01-12 16:19:27.996510,515.5628824530011,2300.204122208231,3727.881237987938,False
0.0,1.0,-100.5329,361.4396,10388.4,0.04310766,-1.48398,0.8543722,2000.0,2024-01-12 16:19:28.175882,-40.03378453716295,2028.3725442097984,-1708.0703788774224,False
0.0,6.0,136.4375,1086.713,9308.866,2.703108,1.66602,1.554372,2000.0,2024-01-12 16:19:28.476024,789.5276235915,2416.434221135329,-3596.7442077416677,False
1.0,1.0,-234.5767,222.6085,8866.043,1.303108,1.24602,3.374372,2000.0,2024-01-12 16:19:28.656114,-2060.1599200399796,-4798.181464823144,-2458.898328613473,False
-2.0,0.0,414.0997,-131.6502,10029.35,0.04310766,0.8960198,0.9943722,2000.0,2024-01-12 16:19:28.836145,3603.137237475768,-1967.7649960284616,6461.703817675849,False
-2.0,-4.0,457.1852,-890.4341,10685.21,-1.496892,-0.6439802,-3.975628,2000.0,2024-01-12 16:19:29.015695,239.96379838485117,-4226.03118908382,3652.7986633249725,False
0.0,10.0,62.23464,1756.932,9624.826,0.1131077,-0.7839803,2.464372,2000.0,2024-01-12 16:19:29.195724,-2193.8163295913437,14705.220270067603,-5890.073265973816,False
-2.0,0.0,430.8552,-45.47916,9610.465,-0.5168923,-1.62398,4.564372,2000.0,2024-01-12 16:19:29.375458,2050.9228081498213,-10028.214806324902,-79.90140986123363,False
0.0,1.0,81.38376,220.2149,9318.44,-0.3068923,-0.4339803,1.624372,2000.0,2024-01-12 16:19:29.555615,-1939.816049334747,1474.791764960562,-1620.9472848681962,False
-2.0,1.0,390.1633,253.7258,10043.71,0.2531077,-1.41398,-0.1256279,2000.0,2024-01-12 16:19:29.735276,1718.6787338376164,186.522951558769,4036.8805695170277,False
1.0,-2.0,-196.2785,-411.7061,10745.05,1.093108,-1.06398,1.624372,2000.0,2024-01-12 16:19:29.915863,-3247.419803197351,-3684.827257776031,3883.6682596200176,False
0.0,3.0,-782.7203,-840.1677,10271.11,0.04310766,-0.8539803,2.534372,2000.0,2024-01-12 16:19:30.096021,-3255.152699297283,-2378.254643146571,-2630.6908380421555,False
-1.0,2.0,339.8969,435.6425,10213.66,-1.566892,-0.2939802,3.514372,795.0,2024-01-12 16:19:30.336047,4677.064984626665,5315.300009165673,-239.34907051736366,False
0.0,0.0,112.5011,-59.841,9758.87,-0.8668922,-2.04398,0.3643722,753.0,2024-01-12 16:19:30.516672,-1258.9386851211073,-2743.1612456747403,-2517.8685121107214,False
1.0,5.0,43.08552,1117.83,9902.489,0.1131077,0.05601976,7.714372,713.0,2024-01-12 16:19:30.755698,-290.4101645846058,4926.957736815241,600.8509534527574,False
-4.0,-2.0,816.2313,-485.9089,9658.338,2.283108,-1.20398,1.064372,667.0,2024-01-12 16:19:30.996317,3213.1534916195315,-6665.055128647363,-1014.678807575461,False
-2.0,3.0,545.7499,562.5054,10455.42,1.093108,-0.01398024,-0.1956278,625.0,2024-01-12 16:19:31.175593,-1508.742943840782,5848.0460295856665,4446.116602333834,False
4.0,-3.0,-890.4341,-598.41,10223.24,-0.3768923,1.45602,-0.3356278,594.0,2024-01-12 16:19:31.356108,-7956.036894440905,-6431.129823006398,-1286.208902307289,False
-4.0,4.0,739.6348,734.8475,9801.956,1.723108,0.1260198,4.704372,568.0,2024-01-12 16:19:31.595747,6802.185370494786,5563.608177300022,-1757.9943164509937,False
-4.0,4.0,916.7642,749.2094,10627.76,-0.5168923,-0.3639803,-2.015628,534.0,2024-01-12 16:19:31.776013,982.6001575449608,79.67059789422294,4581.030255289406,False
2.0,0.0,-909.5832,105.3202,9462.06,-2.826892,2.92602,4.354372,480.0,2024-01-12 16:19:32.016053,-7608.512747875355,-2682.424595900683,-4856.273954340946,False
-3.0,-4.0,581.6545,-866.4977,10235.21,-1.846892,-3.86398,2.184372,441.0,2024-01-12 16:19:32.195786,8296.961047776424,-5407.008729615596,4301.658571325242,False
5.0,-1.0,-933.5196,-248.9386,9507.538,1.163108,2.85602,2.254372,414.0,2024-01-12 16:19:32.375302,-8440.328995744112,3440.134027050513,-4053.5216916597888,False
-7.0,3.0,1132.192,495.4835,8315.506,-0.3768923,0.9660198,5.754372,374.0,2024-01-12 16:19:32.616352,8569.639493880939,3088.247666459241,-4945.164903546986,False
0.0,-3.0,114.8947,-725.2729,10967.66,2.913108,-3.72398,-2.295628,319.0,2024-01-12 16:19:32.796387,-5650.552948037881,-6780.661538034271,14731.324464687425,False
-2.0,3.0,380.5888,581.6545,8617.104,-0.3768923,0.4060197,1.204372,286.0,2024-01-12 16:19:33.036465,1106.6990728013395,5443.76161080982,-9790.801322903391,False
3.0,1.0,-579.2609,287.2368,10196.91,-0.8668922,1.59602,1.134372,286.0,2024-01-12 16:19:33.216080,-5343.928402416279,-1639.1598697213483,8795.512624224039,False
-2.0,0.0,483.5153,-57.44736,9591.315,0.1131077,-0.9939802,0.8543722,286.0,2024-01-12 16:19:33.396112,5903.262753288304,-1914.5716317099184,-3363.8186544614255,False
0.0,0.0,162.7675,-100.5329,10103.55,2.003108,3.55602,6.664372,176.0,2024-01-12 16:19:33.576142,-1781.6352830083874,-239.32422374048767,2845.275787368765,False
-3.0,4.0,624.7401,708.5175,9083.864,-0.3768923,-3.79398,-0.8956279,117.0,2024-01-12 16:19:33.755828,2570.9994100820313,4502.5789432677,-5674.821633293633,False
0.0,-4.0,0.0,-651.0701,9093.438,-0.02689235,-1.62398,-0.9656279,91.0,2024-01-12 16:19:33.935994,-3467.580453581697,-7546.305074209341,53.13988210872487,False
-35.0,32.0,5907.503,4461.745,7039.695,19.22311,29.03602,43.34437,40.0,2024-01-12 16:19:34.176028,24611.109259521567,21300.37869635135,-8556.050392861012,True
-18.0,22.0,5823.726,6759.64,16032.6,-1.986893,5.72602,25.56437,40.0,2024-01-12 16:19:34.296064,-697.9322869805728,19143.381985404383,74918.39948015596,True
-18.0,22.0,5823.726,6759.64,16032.6,-1.986893,5.72602,25.56437,40.0,2024-01-12 16:19:34.296064,-697.9322869805728,19143.381985404383,74918.39948015596,True
-3.0,-3.0,720.4857,-708.5175,10924.57,2.913108,-11.77398,2.394372,51.0,2024-01-12 16:19:34.536098,-21260.489347342456,-31112.9152536724,-21280.443603822794,True
-3.0,-3.0,720.4857,-708.5175,10924.57,2.913108,-11.77398,2.394372,51.0,2024-01-12 16:19:34.536098,-21260.489347342456,-31112.9152536724,-21280.443603822794,True
1.0,-1.0,-179.523,-191.4912,9620.039,-1.986893,3.41602,1.134372,100.0,2024-01-12 16:19:34.776185,-3748.6773544590087,2153.4956078421574,-5433.576161974614,True
1.0,-1.0,-179.523,-191.4912,9620.039,-1.986893,3.41602,1.134372,100.0,2024-01-12 16:19:34.776185,-3748.6773544590087,2153.4956078421574,-5433.576161974614,True
13.0,11.0,-2001.083,1637.25,8028.269,-1.496892,19.02602,-174.4256,195.0,2024-01-12 16:19:34.955324,-10168.416704346906,10208.504010851908,-8885.66978714853,True
13.0,11.0,-2001.083,1637.25,8028.269,-1.496892,19.02602,-174.4256,195.0,2024-01-12 16:19:34.955324,-10168.416704346906,10208.504010851908,-8885.66978714853,True
-1.0,2.0,320.7478,404.5252,9225.089,-0.6568923,-4.49398,-204.8756,2000.0,2024-01-12 16:19:35.136017,12849.58908203417,-6822.205619476128,6623.499526821735,True
-1.0,2.0,320.7478,404.5252,9225.089,-0.6568923,-4.49398,-204.8756,2000.0,2024-01-12 16:19:35.136017,12849.58908203417,-6822.205619476128,6623.499526821735,False
4.0,0.0,-818.6249,26.33004,10050.89,-1.286892,4.04602,-200.2556,1570.0,2024-01-12 16:19:35.435560,-3803.703308039246,-1262.5738541711873,2756.869631405172,False
2.0,0.0,-378.1951,119.682,8528.539,-0.9368923,5.02602,5.894372,1823.0,2024-01-12 16:19:35.734068,1475.4371742130863,312.7285030886945,-5099.86667023999,False
-2.0,1.0,378.1951,165.1612,9079.077,-1.146892,-0.9939802,-0.2656279,1773.0,2024-01-12 16:19:35.856146,6195.958321728731,372.5421451858648,4509.723291665972,False
1.0,0.0,-172.3421,59.841,9622.433,0.1831077,1.66602,2.534372,1729.0,2024-01-12 16:19:36.035748,-3065.3177581541404,-586.4088373180699,3025.333793610325,False
0.0,3.0,98.13924,507.4517,9014.448,1.093108,0.1960198,-0.2656279,1685.0,2024-01-12 16:19:36.273571,1137.3220420228488,1882.1169525235155,-2556.460056428523,False
0.0,-1.0,21.54276,-239.364,8995.299,-2.896892,1.73602,-1.945628,1640.0,2024-01-12 16:19:36.455828,-420.2663272192563,-4097.596800122903,-105.06592339388574,False
-5.0,4.0,816.2313,641.4955,9098.226,0.3931077,-3.37398,4.494372,1609.0,2024-01-12 16:19:36.635965,4411.578631819116,4889.942099624175,571.3817816439692,False
0.0,-4.0,67.02192,-768.3585,9067.108,-1.846892,2.85602,3.164372,2000.0,2024-01-12 16:19:36.816208,-4156.662838501356,-7821.962572749012,-172.64470742275924,False
-4.0,0.0,593.6227,713.3047,10053.29,-2.406892,0.6860198,-0.5456278,2000.0,2024-01-12 16:19:37.056235,2193.923100317881,6172.902215167461,4108.6294458540115,False
0.0,-1.0,35.9046,-337.5032,10184.94,-3.946893,3.06602,1.624372,1490.0,2024-01-12 16:19:37.236385,-3095.854010546767,-5832.960865945046,730.7799056341917,False
-2.0,3.0,545.7499,718.092,10982.02,-4.926892,-1.48398,1.834372,1463.0,2024-01-12 16:19:37.415479,2846.8027962969168,5894.084670619898,4450.62369481948,False
-2.0,4.0,550.5372,890.4341,10993.99,0.04310766,3.76602,4.004372,1463.0,2024-01-12 16:19:37.596116,26.502322337062502,954.0797289591832,66.26549378034038,False
-4.0,5.0,758.7839,876.0723,9933.606,6.833108,-0.9239802,0.2243722,728.0,2024-01-12 16:19:37.775649,1159.9354993232444,-79.99532119443168,-5906.3459085516315,False
-2.0,1.0,505.058,270.4813,9828.286,-1.006892,1.87602,-0.4756279,646.0,2024-01-12 16:19:37.955733,-1408.9308322782704,-3362.8251260522875,-584.8381866240182,True
26.0,21.0,-6307.242,4655.63,12051.98,15.79311,30.99602,39.91437,1272.0,2024-01-12 16:19:38.196488,-28295.570185458248,18214.154223172933,9236.335693962741,True
26.0,-22.0,-4813.61,-3810.675,9045.565,-7.516892,45.90602,43.20437,1275.0,2024-01-12 16:19:38.316012,12496.502794417862,-70833.51460794485,-25153.23282353334,True
26.0,-22.0,-4813.61,-3810.675,9045.565,-7.516892,45.90602,43.20437,1275.0,2024-01-12 16:19:38.316012,12496.502794417862,-70833.51460794485,-25153.23282353334,True
-11.0,1.0,2166.244,303.9923,10816.86,5.013108,-3.09398,3.934372,1281.0,2024-01-12 16:19:38.556152,29065.769967518947,17134.4519863413,7376.093112351129,True
-11.0,1.0,2166.244,303.9923,10816.86,5.013108,-3.09398,3.934372,1281.0,2024-01-12 16:19:38.556152,29065.769967518947,17134.4519863413,7376.093112351129,True
0.0,3.0,-98.13924,528.9944,9497.964,1.583108,0.5460198,5.474372,1291.0,2024-01-12 16:19:38.735463,-12628.245004489407,1254.814818945854,-7355.354663127196,True
0.0,3.0,-98.13924,528.9944,9497.964,1.583108,0.5460198,5.474372,1291.0,2024-01-12 16:19:38.735463,-12628.245004489407,1254.814818945854,-7355.354663127196,True
-20.0,10.0,4713.077,2261.99,12317.67,2.213108,-26.75398,166.3344,1060.0,2024-01-12 16:19:38.975755,20022.37377856941,7212.040350906396,11734.498027399997,True
-20.0,10.0,4713.077,2261.99,12317.67,2.213108,-26.75398,166.3344,1060.0,2024-01-12 16:19:38.975755,20022.37377856941,7212.040350906396,11734.498027399997,True
-8.0,0.0,1455.333,-126.8629,9287.323,-0.5868923,1.45602,174.0344,1002.0,2024-01-12 16:19:39.156124,-18061.55159700392,-13244.254278728606,-16800.819431276992,True
-8.0,0.0,1455.333,-126.8629,9287.323,-0.5868923,1.45602,174.0344,1002.0,2024-01-12 16:19:39.156124,-18061.55159700392,-13244.254278728606,-16800.819431276992,False
1.0,0.0,-270.4813,-2.39364,9114.981,-0.6568923,10.97602,140.5044,587.0,2024-01-12 16:19:39.456317,-5749.01579983544,414.63078752669117,-574.1039930977756,False
-7.0,3.0,1175.277,519.4199,9170.035,-0.5868923,-2.60398,1.414372,553.0,2024-01-12 16:19:39.635586,8064.742370404252,2910.785132956618,307.1027338803702,False
1.0,3.0,-294.4177,555.3245,8495.028,3.053108,-0.7839803,4.144372,512.0,2024-01-12 16:19:39.816189,-8137.709229636273,198.80400657796358,-3737.5182029091407,False
-10.0,5.0,1649.218,856.9232,9131.736,-0.2368924,-0.4339803,4.214372,471.0,2024-01-12 16:19:39.996740,10765.023179046364,1670.4349463586468,3526.471744825565,False
2.0,0.0,-445.217,-19.14912,10546.38,-0.4468923,2.99602,0.5043722,412.0,2024-01-12 16:19:40.235772,-8762.15318451086,-3665.0838381471935,5918.220154623642,False
0.0,-2.0,-4.78728,-392.557,10101.16,-1.146892,1.80602,1.974372,372.0,2024-01-12 16:19:40.415955,2444.3466919742705,-2072.381301232636,-2470.9323299090333,False
-2.0,4.0,473.9407,691.762,9308.866,1.933108,-2.04398,0.5743722,328.0,2024-01-12 16:19:40.656253,1992.226235757268,4512.392945426095,-3297.1310622643546,False
-2.0,-2.0,347.0778,-426.0679,9193.972,-4.576892,-4.42398,-5.375628,271.0,2024-01-12 16:19:40.835859,-706.3399886418047,-6223.789294344287,-639.7002327316472,False
-2.0,4.0,368.6206,622.3464,8875.617,5.853108,-1.55398,-1.735628,227.0,2024-01-12 16:19:41.015440,119.96146585663294,5838.113720271075,-1772.7654930087235,False
-2.0,1.0,438.0361,191.4912,9349.558,0.6031077,-4.49398,0.3643722,188.0,2024-01-12 16:19:41.195731,385.0192189293972,-2389.7765279464866,2628.755733785939,False
0.0,0.0,-95.74561,105.3202,10505.69,1.583108,-0.08398026,1.694372,154.0,2024-01-12 16:19:41.375847,-2963.5441049101687,-478.4194630127251,6418.818983321858,False
-8.0,1.0,1350.013,167.5548,8854.074,1.863108,-4.84398,2.324372,110.0,2024-01-12 16:19:41.556006,8024.9036129196975,345.4426367819537,-9167.54644508462,False
-1.0,0.0,225.0022,126.8629,8691.307,2.143108,-3.44398,-0.9656279,71.0,2024-01-12 16:19:41.735862,-6255.064051240994,-226.24710879814967,-904.9850991904626,False
14.0,-50.0,-1484.057,-4421.053,3638.333,-0.02689235,30.15602,62.03437,40.0,2024-01-12 16:19:41.975502,-7131.777666499749,-18978.116758471042,-21085.686863628776,True
-12.0,0.0,2793.378,155.5866,12162.08,7.883108,-13.03398,82.05437,40.0,2024-01-12 16:19:42.096525,35343.984201350155,37816.27955016815,70430.80240945936,True
10.0,-6.0,-2424.757,-1455.333,12796.4,-3.946893,-21.15398,-8.245627,40.0,2024-01-12 16:19:42.276043,-29067.475127842332,-8973.582593388965,3533.461825555096,True
10.0,-6.0,-2424.757,-1455.333,12796.4,-3.946893,-21.15398,-8.245627,40.0,2024-01-12 16:19:42.276043,-29067.475127842332,-8973.582593388965,3533.461825555096,True
10.0,-6.0,-2424.757,-1455.333,12796.4,-3.946893,-21.15398,-8.245627,40.0,2024-01-12 16:19:42.276043,-29067.475127842332,-8973.582593388965,3533.461825555096,True
0.0,-2.0,47.8728,-406.9188,10060.47,-0.09689235,3.69602,1.834372,51.0,2024-01-12 16:19:42.515790,10313.49631069419,4373.0023733352255,-11411.73820736026,True
-9.0,2.0,1780.868,500.2708,10678.03,1.723108,-3.16398,187.8944,94.0,2024-01-12 16:19:42.695823,9625.986346947504,5039.018402181822,3430.2600078874502,True
-9.0,2.0,1780.868,500.2708,10678.03,1.723108,-3.16398,187.8944,94.0,2024-01-12 16:19:42.695823,9625.986346947504,5039.018402181822,3430.2600078874502,True
-3.0,2.0,591.2291,450.0043,9304.079,1.373108,0.3360198,172.9844,110.0,2024-01-12 16:19:42.875344,-6626.739490087511,-280.00345363495086,-7653.42773268866,True
-3.0,2.0,591.2291,450.0043,9304.079,1.373108,0.3360198,172.9844,110.0,2024-01-12 16:19:42.875344,-6626.739490087511,-280.00345363495086,-7653.42773268866,False
9.0,-4.0,-1689.91,-830.5931,9734.934,1.233108,5.93602,148.1344,2000.0,2024-01-12 16:19:43.175414,-7602.02319458793,-4267.662212150499,1435.8483020628505,False
1.0,4.0,-215.4276,828.1995,10558.35,3.683108,0.4760198,3.444372,2000.0,2024-01-12 16:19:43.355966,8166.524879259162,9187.339935309496,4560.547653861498,False
3.0,2.0,495.4835,-191.4912,9924.031,-0.4468923,0.1260198,-0.6156278,2000.0,2024-01-12 16:19:43.536134,3945.823342657964,-5659.665978420141,-3520.70844989121,False
0.0,-2.0,7.18092,-373.4078,10400.37,-0.7268924,0.1960198,0.7843722,2000.0,2024-01-12 16:19:43.716359,-2709.4053544180883,-1009.3860452212514,2643.023997780552,False
-4.0,1.0,789.9012,248.9386,10065.26,-1.846892,0.6860198,-0.1256279,2000.0,2024-01-12 16:19:43.895398,4371.7864822748115,3476.0381816252325,-1871.7151011790759,False
-2.0,1.0,430.8552,282.4495,10512.87,1.863108,3.69602,1.974372,2000.0,2024-01-12 16:19:44.076430,-1983.3289142251094,185.11036722789336,2472.5462901586493,False
-1.0,-2.0,318.3541,-478.728,10213.66,-1.076892,2.92602,3.444372,2000.0,2024-01-12 16:19:44.315952,-469.69004934828536,-3177.902238625262,-1249.1963159960294,False
-1.0,0.0,265.694,-95.74561,8947.427,-1.426892,2.57602,0.08437216,2000.0,2024-01-12 16:19:44.496108,-292.3027820333489,2125.837551899465,-7028.53637958214,False
-2.0,2.0,454.7916,438.0361,10570.31,3.263108,-1.41398,1.904372,2000.0,2024-01-12 16:19:44.675632,1053.327688776988,2973.31671531383,9039.922238809295,False
-4.0,4.0,880.8596,782.7203,10716.33,0.1831077,-2.32398,-0.3356278,2000.0,2024-01-12 16:19:44.856230,2359.2066357323997,1908.5715234941692,808.53608567094,False
0.0,3.0,-162.7675,715.6984,11436.81,0.5331077,-2.18398,-2.575628,2000.0,2024-01-12 16:19:45.093551,-4397.5337201511875,-282.4103218847045,3035.888100926591,False
-2.0,1.0,418.887,277.6622,9134.131,0.4631076,-1.34398,-2.295628,2000.0,2024-01-12 16:19:45.215573,4766.800249135402,-3589.81331235351,-18871.015062857517,False
-1.0,1.0,253.7258,265.694,9469.24,-1.706892,3.97602,1.274372,2000.0,2024-01-12 16:19:45.396660,-912.0544268776887,-66.09088449198434,1850.541452451034,False
4.0,3.0,-722.8793,607.9846,10302.23,1.163108,3.90602,8.134372,2000.0,2024-01-12 16:19:45.575742,-5453.3962095576335,1911.3623926469438,4651.444589629331,False
-6.0,0.0,1069.957,131.6502,10101.16,0.8831077,0.8960198,0.08437216,2000.0,2024-01-12 16:19:45.755847,9954.394936287166,-2644.759445878793,-1116.4043197023943,False
0.0,4.0,2.39364,631.921,8928.277,0.1831077,1.52602,3.024372,2000.0,2024-01-12 16:19:45.935940,-5927.844835723766,2777.847001271565,-6512.65179657177,False
2.0,0.0,-406.9188,-31.11732,9612.858,-1.636892,3.27602,-0.3356278,2000.0,2024-01-12 16:19:46.116066,-2272.3673428599977,-3680.969543541743,3800.5673806113505,False
-4.0,-2.0,677.4001,-461.9725,9356.739,-1.706892,0.2660198,-1.875628,2000.0,2024-01-12 16:19:46.295218,6052.50792623024,-2404.969969634724,-1429.6184245780153,False
3.0,2.0,-607.9846,399.7379,9775.626,0.8131077,-1.69398,4.914372,2000.0,2024-01-12 16:19:46.535322,-5353.44975510612,3588.9048079165696,1744.6065038483348,False
0.0,2.0,33.51096,385.376,9392.644,-0.2368924,-4.00398,1.344372,2000.0,2024-01-12 16:19:46.715388,3562.5579509735317,-79.75908833427769,-2126.8979152088677,False
6.0,0.0,-1132.192,153.193,10532.02,-3.386892,6.00602,-0.5456278,2000.0,2024-01-12 16:19:46.895452,-6473.825750844145,-1289.4470854807178,6327.616847343168,False
0.0,0.0,160.3739,-88.56468,9366.313,-0.1668923,0.6160198,1.694372,2000.0,2024-01-12 16:19:47.075976,7160.077884381025,-1339.1996632026767,-6457.351931045182,False
0.0,2.0,-129.2566,416.4934,10082.01,0.2531077,-2.60398,1.974372,2000.0,2024-01-12 16:19:47.255998,-1608.861694681761,2805.5353234604663,3975.6085367344,False
-2.0,-1.0,471.5471,-335.1096,10168.18,-0.3068923,-0.08398026,4.774372,2000.0,2024-01-12 16:19:47.496666,2496.400435454651,-3122.986853258431,358.0451077833367,False
0.0,4.0,-43.08552,854.5295,10091.59,-1.076892,0.2660198,1.064372,2000.0,2024-01-12 16:19:47.735885,-2151.303282766001,4973.012595153395,-320.16687637687704,False
1.0,0.0,-251.3322,-134.0438,11075.37,-0.3068923,-2.25398,5.124372,2000.0,2024-01-12 16:19:47.916193,-1154.9497526454734,-5482.692393016395,5456.1084366750265,False
-3.0,1.0,605.5909,292.0241,9710.998,-1.916892,0.9660198,0.2243722,2000.0,2024-01-12 16:19:48.095832,4770.250892066868,2371.8006668930466,-7595.0767929013255,False
0.0,2.0,86.17104,404.5252,9485.995,2.213108,-3.23398,-2.715628,2000.0,2024-01-12 16:19:48.276345,-2877.465113315938,623.229905879355,-1246.4642435724784,False
1.0,-4.0,-184.3103,-859.3168,10424.3,-4.576892,2.01602,1.484372,592.0,2024-01-12 16:19:48.514529,-1135.5982769623486,-5306.158264199106,3939.4123870620965,False
-6.0,-2.0,1084.319,-505.058,9787.594,-2.126892,0.5460198,-1.105628,2000.0,2024-01-12 16:19:48.636245,10422.863879851457,2910.536001840349,-5231.0789049919495,False
-2.0,2.0,464.3662,426.0679,9160.46,-1.006892,1.87602,-0.4056278,2000.0,2024-01-12 16:19:48.815816,-3452.4104671689747,5185.27991713584,-3492.4013342911717,False
-5.0,0.0,955.0624,102.9265,9598.496,-1.146892,-3.65398,0.3643722,2000.0,2024-01-12 16:19:48.995921,2724.50070792038,-1794.1833930207379,2432.114599816774,False
0.0,-4.0,-19.14912,-897.615,10522.44,-3.246892,0.4060197,-1.525628,2000.0,2024-01-12 16:19:49.176009,-5409.641508595798,-5555.847696681622,5130.513970947544,False
4.0,2.0,-710.9111,373.4078,9730.146,2.283108,0.1260198,-1.735628,2000.0,2024-01-12 16:19:49.416114,-2881.081110347556,5293.612377917993,-3299.7813456612726,False
0.0,3.0,23.9364,610.3782,9581.741,4.943108,-2.60398,0.7143722,2000.0,2024-01-12 16:19:49.595439,4097.853060086435,1321.4576885543006,-827.5756308378678,False
0.0,0.0,-177.1294,88.56468,10318.98,2.633108,-2.32398,-2.645628,2000.0,2024-01-12 16:19:49.775961,-1113.802195854245,-2890.581314188853,4083.9288286192245,False
1.0,2.0,-184.3103,382.9824,9998.234,0.3231077,-4.98398,-5.375628,2000.0,2024-01-12 16:19:49.955516,-39.99275987858878,1639.7077218679512,-1786.3384478293515,False
-5.0,1.0,900.0087,282.4495,9739.722,0.5331077,-1.97398,0.4343722,862.0,2024-01-12 16:19:50.135545,6023.0240683445445,-558.4261424548266,-1435.9464308528106,False
0.0,0.0,-284.8432,622.3464,9718.179,-1.636892,3.55602,1.764372,718.0,2024-01-12 16:19:50.315444,-6586.206149005831,1889.3762611242976,-119.7505266844155,False
4.0,-4.0,-873.6786,-926.3387,10596.64,-1.706892,0.8260198,-0.4756279,662.0,2024-01-12 16:19:50.495524,-3269.854509107063,-8599.983896046204,4878.170812972009,False
0.0,4.0,146.012,792.2949,9847.436,-0.7268924,-2.46398,7.154372,662.0,2024-01-12 16:19:50.676586,5631.720626083882,9491.961869414898,-4137.83124012769,False
-13.0,-2.0,2156.67,-361.4396,8887.586,0.8831077,3.83602,5.334372,662.0,2024-01-12 16:19:50.915772,8406.252874332109,-4823.58708285602,-4012.9857098659636,False
0.0,4.0,90.95832,964.637,12253.04,0.5331077,4.25602,4.284372,662.0,2024-01-12 16:19:51.155825,-8605.23167800444,5524.099261413105,14019.62899859615,False
20.0,-15.0,-3293.649,-2388.853,8454.337,4.873108,12.58602,39.28437,140.0,2024-01-12 16:19:51.576143,-15220.737340613241,-12013.225771548425,-6763.670639544566,True
20.0,-15.0,-3293.649,-2388.853,8454.337,4.873108,12.58602,39.28437,140.0,2024-01-12 16:19:51.576143,-15220.737340613241,-12013.225771548425,-6763.670639544566,True
22.0,-57.0,-2874.762,-5773.46,3700.567,-30.89689,24.62602,39.63437,125.0,2024-01-12 16:19:51.695755,3502.048289469282,-28296.550513326423,-39743.25318529913,True
22.0,-57.0,-2874.762,-5773.46,3700.567,-30.89689,24.62602,39.63437,125.0,2024-01-12 16:19:51.695755,3502.048289469282,-28296.550513326423,-39743.25318529913,True
10.0,0.0,-1469.695,90.95832,7803.267,1.583108,6.84602,4.774372,161.0,2024-01-12 16:19:51.935899,5850.9352721700325,24420.424078886,17084.332733693118,True
0.0,1.0,-466.7598,-643.8892,9620.039,-0.9368923,-0.2939802,-1.035628,598.0,2024-01-12 16:19:52.115833,5573.905987751064,-4083.9836829059536,10096.879967099052,True
0.0,1.0,-466.7598,-643.8892,9620.039,-0.9368923,-0.2939802,-1.035628,598.0,2024-01-12 16:19:52.115833,5573.905987751064,-4083.9836829059536,10096.879967099052,True
0.0,1.0,-466.7598,-643.8892,9620.039,-0.9368923,-0.2939802,-1.035628,598.0,2024-01-12 16:19:52.115833,5573.905987751064,-4083.9836829059536,10096.879967099052,True
-18.0,9.0,3561.736,1783.262,10565.53,-3.036892,-3.02398,136.4444,634.0,2024-01-12 16:19:52.413907,13515.086186651635,8142.780651784456,3172.0009125250776,True
-18.0,9.0,3561.736,1783.262,10565.53,-3.036892,-3.02398,136.4444,634.0,2024-01-12 16:19:52.413907,13515.086186651635,8142.780651784456,3172.0009125250776,True
0.0,1.0,-4.78728,174.7357,9694.242,2.283108,-3.72398,195.6644,117.0,2024-01-12 16:19:52.595935,-19593.267409409542,-8836.697101544818,-4786.560309402952,True
0.0,1.0,-4.78728,174.7357,9694.242,2.283108,-3.72398,195.6644,117.0,2024-01-12 16:19:52.595935,-19593.267409409542,-8836.697101544818,-4786.560309402952,False
7.0,-6.0,-1136.979,-1079.532,8997.693,1.303108,3.90602,182.7844,2000.0,2024-01-12 16:19:52.895378,-3780.992442635159,-4188.669295992893,-2326.148883092945,False
2.0,1.0,-452.398,330.3223,10603.83,1.653108,2.08602,2.044372,2000.0,2024-01-12 16:19:53.076455,3780.607145026702,7785.938026364475,8869.911695024772,False
-7.0,0.0,1287.778,78.99012,10242.39,0.4631076,-0.3639803,-0.1256279,2000.0,2024-01-12 16:19:53.255999,9692.198012743393,-1399.836140444682,-2013.0998529608369,False
-6.0,10.0,1103.468,1761.719,9308.866,1.793108,-9.95398,-1.665628,2000.0,2024-01-12 16:19:53.496704,-765.7090629608855,6990.834756236888,-3878.290853949853,False
-5.0,1.0,825.8058,287.2368,9301.686,1.583108,0.05601976,-0.4056278,2000.0,2024-01-12 16:19:53.676383,-1545.3236048731353,-8206.202171650553,-39.96015115845642,False
-4.0,5.0,622.3464,821.0186,8796.627,-1.636892,-0.7139802,1.904372,2000.0,2024-01-12 16:19:53.916039,-848.9643489000899,2227.283272690857,-2107.433154187666,False
-5.0,5.0,797.0822,866.4977,8550.082,0.04310766,-1.41398,13.17437,2000.0,2024-01-12 16:19:54.095408,974.1694495704381,253.55050203769892,-1374.5128756920096,False
2.0,1.0,-423.6743,217.8212,9964.724,0.8831077,4.32602,-0.6156278,2000.0,2024-01-12 16:19:54.335680,-5080.727259106346,-2699.7590231071454,5887.668975161482,False
-2.0,0.0,392.557,-9.57456,10089.19,0.04310766,-0.01398024,0.9943722,2000.0,2024-01-12 16:19:54.515792,4531.798547570401,-1262.5242071599894,691.0477924846782,False
0.0,8.0,-105.3202,1555.866,10670.85,-0.3068923,-0.5039802,9.674373,2000.0,2024-01-12 16:19:54.755972,-2072.933633108502,6517.7806645016235,2421.7670080772746,False
-4.0,6.0,686.9747,1053.202,9299.292,4.873108,-4.42398,6.664372,2000.0,2024-01-12 16:19:54.936049,4399.756215396747,-2791.3836858677123,-7616.508493588859,False
0.0,2.0,134.0438,392.557,10673.24,1.863108,-0.7139802,4.634372,2000.0,2024-01-12 16:19:55.176175,-2302.669848329627,-2751.2430973738788,5721.7793991487815,False
0.0,-3.0,67.02192,-600.8036,9512.325,-1.076892,0.05601976,7.364372,1983.0,2024-01-12 16:19:55.355193,-374.386262833905,-5548.942564434861,-6484.906545710482,False
-1.0,2.0,282.4495,481.1216,10079.62,-0.5868923,-1.13398,13.10437,2000.0,2024-01-12 16:19:55.535275,1196.2749192034742,6007.958596639309,3150.203796048467,False
-1.0,1.0,289.6304,184.3103,9794.775,0.3931077,-2.60398,0.5043722,1013.0,2024-01-12 16:19:55.775476,29.895379286514245,-1235.6788689472564,-1185.8610080724109,False
0.0,1.0,138.8311,248.9386,11484.68,0.6731077,-3.65398,0.8543722,977.0,2024-01-12 16:19:56.015352,-628.6552218646301,269.42378562257164,7044.910703863666,False
0.0,3.0,-14.36184,526.6008,9993.447,-2.686893,1.66602,5.614372,912.0,2024-01-12 16:19:56.195444,-850.6371188059436,1541.7797570130824,-8280.395575594697,False
0.0,3.0,131.6502,493.0898,9162.854,1.933108,-1.90398,2.394372,2000.0,2024-01-12 16:19:56.375993,808.711430138079,-185.60612354540888,-4600.374413594098,False
-6.0,5.0,993.3606,873.6786,8923.49,1.583108,-1.69398,5.894372,823.0,2024-01-12 16:19:56.555644,4796.580035735954,2118.489738437303,-1332.383343259985,False
-1.0,1.0,246.5449,263.3004,11546.92,-2.266892,-2.74398,-4.045628,789.0,2024-01-12 16:19:56.735202,-4159.189231334722,-3399.337261497677,14610.487976030032,False
1.0,5.0,4.78728,969.4242,11499.05,-3.036892,-2.53398,5.824372,730.0,2024-01-12 16:19:56.976246,-1002.9605383249531,2929.439438442774,-198.5944474867692,False
-6.0,2.0,1139.373,478.728,10065.26,0.1131077,-0.5039802,3.514372,697.0,2024-01-12 16:19:57.155820,6318.207090113267,-2732.5570516889975,-7984.396404824746,False
-7.0,3.0,1429.003,636.7083,11185.48,0.7431077,3.34602,1.414372,635.0,2024-01-12 16:19:57.395991,1205.9324398033064,657.7825799118128,4664.2600480490955,False
-7.0,1.0,1412.248,232.1831,10819.25,-1.776892,-2.53398,-2.365628,605.0,2024-01-12 16:19:57.576016,-93.07040688793158,-2247.0501319261216,-2034.3285654770148,False
2.0,0.0,-471.5471,-81.38376,9210.727,-2.476892,1.87602,2.534372,588.0,2024-01-12 16:19:57.755956,-10469.018006002001,-1742.6189841058133,-8939.218628431696,False
1.0,-1.0,-186.7039,-265.694,9155.673,1.163108,0.05601976,7.574372,588.0,2024-01-12 16:19:57.993607,1198.5777463591571,-775.5500292445646,-231.65902941708677,False
5.0,-2.0,-895.2214,-461.9725,9421.367,-0.5168923,-0.7139802,3.584372,1360.0,2024-01-12 16:19:58.176668,-3870.3901978029185,-1072.202708386822,1451.3959827598424,False
1.0,0.0,-174.7357,143.6184,9579.348,2.493108,1.38602,7.154372,1311.0,2024-01-12 16:19:58.415698,3014.206166589968,2533.535121114505,660.9254068526953,False
-2.0,0.0,490.6962,-167.5548,10565.53,0.2531077,-0.2939802,-0.4756279,1302.0,2024-01-12 16:19:58.595205,3706.9969416234467,-1733.4878305581399,5493.83589497903,False
-3.0,0.0,512.239,160.3739,9229.876,-0.2368924,-1.76398,8.274372,330.0,2024-01-12 16:19:58.775278,119.63370410888948,1821.087558934432,-7417.291876072484,False
-1.0,7.0,299.205,1170.49,9249.025,3.963108,-0.6439802,1.834372,290.0,2024-01-12 16:19:58.956115,-1178.0443161521152,5585.782223770578,105.8909404601903,False
-1.0,5.0,248.9386,868.8914,9502.751,0.7431077,1.10602,2.534372,290.0,2024-01-12 16:19:59.196673,-208.95750712925772,-1253.7458741758746,1054.739397567325,False
0.0,0.0,-143.6184,-7.18092,9359.133,-1.146892,1.03602,4.494372,290.0,2024-01-12 16:19:59.376189,-2186.752155796698,-4880.19073508768,-800.0289667773368,False
-3.0,1.0,584.0482,251.3322,10251.96,-0.5868923,0.05601976,1.834372,1292.0,2024-01-12 16:19:59.556247,4041.290028768508,1435.7213786668742,4958.552244276841,False
1.0,1.0,-332.716,208.2467,9900.095,0.3231077,2.99602,4.004372,1292.0,2024-01-12 16:19:59.735279,-5120.672282050136,-240.65809464229858,-1965.3749050449069,False
-3.0,8.0,639.1019,1507.993,10261.54,1.723108,-0.5739802,3.444372,1220.0,2024-01-12 16:19:59.916327,5367.736180460431,7179.014957359375,1996.4042684812953,False
-45.0,-2.0,13966.89,-624.7401,13928.59,3.193108,30.36602,-70.89563,1185.0,2024-01-12 16:20:00.096355,74031.7511720399,-11846.67440620348,20369.331437331966,True
-9.0,0.0,1596.558,-143.6184,9057.534,-3.386892,-17.72398,-22.87563,1185.0,2024-01-12 16:20:00.275879,-68906.2855105724,2679.985405851028,-27133.17439450993,True
-9.0,0.0,1596.558,-143.6184,9057.534,-3.386892,-17.72398,-22.87563,1185.0,2024-01-12 16:20:00.275879,-68906.2855105724,2679.985405851028,-27133.17439450993,True
8.0,12.0,-1472.089,2099.222,9387.856,4.943108,19.16602,-14.05563,2000.0,2024-01-12 16:20:00.455802,-17055.334782101232,12465.556932687872,1835.9075826881506,True
8.0,12.0,-1472.089,2099.222,9387.856,4.943108,19.16602,-14.05563,2000.0,2024-01-12 16:20:00.455802,-17055.334782101232,12465.556932687872,1835.9075826881506,True
1.0,-3.0,-181.9166,-603.1973,9830.68,-4.436892,2.85602,2.604372,1224.0,2024-01-12 16:20:00.635831,7166.469846524727,-15011.022113104003,2459.7370423653997,True
1.0,-3.0,-181.9166,-603.1973,9830.68,-4.436892,2.85602,2.604372,1224.0,2024-01-12 16:20:00.635831,7166.469846524727,-15011.022113104003,2459.7370423653997,True
-3.0,-1.0,643.8892,-198.6721,10127.49,-1.076892,12.09602,179.4244,1055.0,2024-01-12 16:20:00.935996,2751.172854929788,1347.6761114720239,988.8228141188995,True
-3.0,-1.0,643.8892,-198.6721,10127.49,-1.076892,12.09602,179.4244,1055.0,2024-01-12 16:20:00.935996,2751.172854929788,1347.6761114720239,988.8228141188995,True
-3.0,-1.0,643.8892,-198.6721,10127.49,-1.076892,12.09602,179.4244,1055.0,2024-01-12 16:20:00.935996,2751.172854929788,1347.6761114720239,988.8228141188995,True
2.0,0.0,-483.5153,19.14912,10158.61,5.223108,1.59602,119.0144,631.0,2024-01-12 16:20:01.175600,-4705.282466069014,909.0884125473698,129.88097026761156,True
2.0,0.0,-483.5153,19.14912,10158.61,5.223108,1.59602,119.0144,631.0,2024-01-12 16:20:01.175600,-4705.282466069014,909.0884125473698,129.88097026761156,False
-13.0,2.0,2822.102,500.2708,11898.78,-1.006892,-1.76398,121.8844,633.0,2024-01-12 16:20:01.475840,11009.916400213162,1602.456967759126,5795.929922728484,False
-1.0,-4.0,227.3958,-780.3267,9914.457,-2.196892,2.29602,4.144372,629.0,2024-01-12 16:20:01.656426,-14368.257782995357,-7091.344290255058,-10988.24382842524,False
0.0,4.0,-157.9802,727.6666,10165.79,4.733108,3.06602,3.164372,594.0,2024-01-12 16:20:01.836009,-2145.9492268199106,8397.194055116577,1399.5367044764846,False
-4.0,-8.0,720.4857,-1393.099,9710.998,-4.226892,-0.7139802,-6.005628,573.0,2024-01-12 16:20:02.076088,3659.0701394124435,-8833.615601531163,-1894.3431120589528,False
-1.0,0.0,303.9923,50.26644,10457.81,-1.286892,-2.53398,0.3643722,550.0,2024-01-12 16:20:02.256196,-2312.4647433761966,8013.888555755436,4146.467674950585,False
-4.0,5.0,672.6129,847.3486,9509.932,-1.286892,1.80602,1.344372,508.0,2024-01-12 16:20:02.493790,1551.4726802865391,3354.80761298686,-3989.4862664882057,False
-1.0,1.0,342.2905,342.2905,10046.11,0.8131077,-3.72398,9.744372,473.0,2024-01-12 16:20:02.733545,-1377.7497862401199,-2106.5591958457594,2236.3579487393376,False
-2.0,1.0,423.6743,191.4912,9967.117,-0.6568923,1.45602,-1.175628,401.0,2024-01-12 16:20:02.975922,335.7736088820309,-622.1683575586793,-325.90963664044193,False
-1.0,-1.0,294.4177,-325.535,9787.594,-0.09689235,1.31602,5.194372,395.0,2024-01-12 16:20:03.156316,-716.523831169551,-2866.09421599388,-995.1716797676256,False
1.0,4.0,-296.8114,813.8376,9991.054,1.163108,0.3360198,5.404372,322.0,2024-01-12 16:20:03.395663,-2470.1755192252253,4760.337919422428,850.062879417753,False
-2.0,0.0,404.5252,64.62828,9766.052,-0.09689235,3.62602,1.694372,288.0,2024-01-12 16:20:03.575227,3905.775099685906,-4172.380432603417,-1253.0462676260297,False
3.0,-2.0,-605.5909,-483.5153,10101.16,-0.4468923,-0.8539803,2.114372,288.0,2024-01-12 16:20:03.815411,-4205.592795523432,-2282.1819105352565,1395.2136695200354,False
-2.0,0.0,414.0997,129.2566,8803.808,-3.736892,-5.12398,6.104372,288.0,2024-01-12 16:20:03.996468,5631.876149499882,3384.414300468913,-7165.434089817013,False
-7.0,-5.0,1263.842,-854.5295,9387.856,2.493108,-3.30398,11.14437,288.0,2024-01-12 16:20:04.175979,4733.650305552306,-5480.366662767185,3253.5499217318093,False
0.0,-1.0,19.14912,-189.0976,9811.53,1.443108,1.03602,-2.365628,288.0,2024-01-12 16:20:04.356002,-6914.076979052677,3696.371574743228,2353.443726634935,False
-3.0,-2.0,564.899,-457.1852,10577.5,-4.856892,0.8260198,-0.1256279,288.0,2024-01-12 16:20:04.536074,3030.731485183704,-1488.7800435381403,4253.687413923316,False
-8.0,-2.0,1488.844,-512.239,9904.883,-2.336892,-0.4339803,5.544372,73.0,2024-01-12 16:20:04.715181,5158.62026609792,-307.3793877402895,-3755.392028228937,False
31.0,1.0,-7927.736,327.9287,12856.24,-1.566892,19.09602,-18.95563,53.0,2024-01-12 16:20:04.895238,-52297.772372082174,4666.120728435995,16391.23721932499,True
34.0,22.0,-5613.086,3157.211,7664.436,-4.016892,13.21602,-14.54563,57.0,2024-01-12 16:20:05.016017,19164.34148320486,23425.283368797554,-42985.98266254895,True
34.0,22.0,-5613.086,3157.211,7664.436,-4.016892,13.21602,-14.54563,57.0,2024-01-12 16:20:05.016017,19164.34148320486,23425.283368797554,-42985.98266254895,True
34.0,22.0,-5613.086,3157.211,7664.436,-4.016892,13.21602,-14.54563,57.0,2024-01-12 16:20:05.016017,19164.34148320486,23425.283368797554,-42985.98266254895,True
15.0,1.0,-1618.101,169.9484,5897.929,0.04310766,-0.08398026,-16.08563,60.0,2024-01-12 16:20:05.313786,13416.389886119778,-10032.147738683341,-5932.474502046887,True
0.0,-1.0,83.7774,-251.3322,9497.964,-2.546892,3.69602,-1.805628,86.0,2024-01-12 16:20:05.435738,13955.313565993178,-3454.478811335607,29520.09807137234,True
0.0,-1.0,83.7774,-251.3322,9497.964,-2.546892,3.69602,-1.805628,86.0,2024-01-12 16:20:05.435738,13955.313565993178,-3454.478811335607,29520.09807137234,True
-9.0,-18.0,2300.288,-4327.701,12755.71,-5.066892,5.51602,-117.7256,93.0,2024-01-12 16:20:05.675845,9231.345191935263,-16977.30095332498,13567.89264786116,True
-9.0,-18.0,2300.288,-4327.701,12755.71,-5.066892,5.51602,-117.7256,93.0,2024-01-12 16:20:05.675845,9231.345191935263,-16977.30095332498,13567.89264786116,True
19.0,13.0,-2451.087,1586.983,6601.659,-3.736892,-11.56398,-125.0056,100.0,2024-01-12 16:20:05.855922,-26385.24075812014,32845.30506394487,-34174.5531078372,True
19.0,13.0,-2451.087,1586.983,6601.659,-3.736892,-11.56398,-125.0056,100.0,2024-01-12 16:20:05.855922,-26385.24075812014,32845.30506394487,-34174.5531078372,False
-12.0,-5.0,2601.887,-1115.436,12130.97,0.6031077,-25.49398,-142.2956,184.0,2024-01-12 16:20:06.155696,16855.944811758192,-9014.854523741218,18444.931848659322,False
-5.0,-1.0,880.8596,-169.9484,9308.866,-2.966892,3.90602,0.2243722,1798.0,2024-01-12 16:20:06.335241,-9585.493330362862,5266.020217772702,-15718.087387563002,False
2.0,0.0,-392.557,74.20284,10060.47,-1.776892,1.31602,-12.86563,1395.0,2024-01-12 16:20:06.575452,-5301.241824895613,1016.4032454800154,3128.932480194493,False
-1.0,0.0,227.3958,-131.6502,10014.99,1.513108,-2.11398,-0.8256278,1356.0,2024-01-12 16:20:06.695608,5159.565897666367,-1713.2148207330472,-378.5079396784144,False
-9.0,0.0,1665.974,153.193,10362.07,-0.3768923,1.17602,-0.8956279,2000.0,2024-01-12 16:20:06.875703,7987.885282767427,1581.6274743885172,1927.2050862045028,False
-10.0,9.0,2252.415,1912.518,11700.11,1.933108,-11.00398,61.75437,1314.0,2024-01-12 16:20:07.055351,3264.3892500890634,9793.17888314927,7448.120769504814,True
11.0,4.0,-2135.127,813.8376,10938.93,10.75311,-21.01398,46.49437,60.0,2024-01-12 16:20:07.175882,-36401.77215819996,-9115.33464419942,-6315.221810156726,True
11.0,4.0,-2135.127,813.8376,10938.93,10.75311,-21.01398,46.49437,60.0,2024-01-12 16:20:07.175882,-36401.77215819996,-9115.33464419942,-6315.221810156726,True
22.0,-16.0,-1948.423,-1335.651,4526.374,-4.086892,6.28602,11.49437,69.0,2024-01-12 16:20:07.356921,1031.291600152453,-11873.069338650788,-35420.85407011749,True
4.0,-4.0,-663.0383,-682.1874,8995.299,-2.406892,3.20602,-1.385628,129.0,2024-01-12 16:20:07.535948,7179.837119540629,3650.0840655320153,24962.29618996018,True
4.0,-4.0,-663.0383,-682.1874,8995.299,-2.406892,3.20602,-1.385628,129.0,2024-01-12 16:20:07.535948,7179.837119540629,3650.0840655320153,24962.29618996018,True
2.0,5.0,-447.6107,945.4878,9021.629,-2.476892,-2.88398,-155.9456,1308.0,2024-01-12 16:20:07.776069,897.1626804819239,6778.5624747523125,109.6530499206647,True
2.0,5.0,-447.6107,945.4878,9021.629,-2.476892,-2.88398,-155.9456,1308.0,2024-01-12 16:20:07.776069,897.1626804819239,6778.5624747523125,109.6530499206647,True
2.0,5.0,-447.6107,945.4878,9021.629,-2.476892,-2.88398,-155.9456,1308.0,2024-01-12 16:20:07.776069,897.1626804819239,6778.5624747523125,109.6530499206647,True
2.0,-2.0,-390.1633,-445.217,10484.14,-2.476892,-1.34398,-142.0856,1299.0,2024-01-12 16:20:08.015373,240.06034165747343,-5811.4565573496475,6111.519239126796,True
2.0,-2.0,-390.1633,-445.217,10484.14,-2.476892,-1.34398,-142.0856,1299.0,2024-01-12 16:20:08.015373,240.06034165747343,-5811.4565573496475,6111.519239126796,False
-24.0,10.0,5103.241,2015.445,10972.45,6.483108,15.59602,-105.3356,1906.0,2024-01-12 16:20:08.315618,18296.405602091625,8195.513663841197,1626.3717963663053,False
-6.0,-4.0,1266.236,-782.7203,10500.9,1.093108,-6.87398,0.2243722,1884.0,2024-01-12 16:20:08.496655,-21194.590056176363,-15456.317216922505,-2604.716162994311,False
-12.0,4.0,2060.924,694.1556,9426.154,2.493108,-8.06398,6.314372,1865.0,2024-01-12 16:20:08.675283,4448.843406408849,8267.885773786864,-6016.671518462946,False
0.0,0.0,124.4693,-64.62828,9390.25,-1.776892,0.7560198,2.254372,1547.0,2024-01-12 16:20:08.974353,-6474.9212558932695,-2537.1447487210353,-120.05216170127545,False
-1.0,16.0,225.0022,2034.594,6845.811,5.223108,-10.09398,-5.025628,2000.0,2024-01-12 16:20:09.095873,827.2950954575377,17274.706056616193,-20938.43811718236,False
-9.0,-2.0,1551.079,-466.7598,9497.964,-5.206892,-6.80398,-4.675628,1714.0,2024-01-12 16:20:09.335998,5522.443727225404,-10416.882040603852,11044.884955752214,False
1.0,0.0,-186.7039,-148.4057,9892.914,-2.196892,-1.20398,1.554372,1668.0,2024-01-12 16:20:09.515937,-9657.622305336808,1769.2334624511643,2194.910497446361,False
