pitch,roll,acceleration_x,acceleration_y,acceleration_z,angular_velocity_x,angular_velocity_y,angular_velocity_z,distance,time,jerk_x,jerk_y,jerk_z,is_running_backoff
-1.0,0.0,306.3859,105.3202,9732.54,0.03353706,-0.01745607,0.1487471,2000.0,2024-01-12 16:23:44.935764,0,0,0,False
-2.0,-5.0,359.046,-897.615,9414.187,-1.086463,-2.257456,-0.7612529,656.0,2024-01-12 16:23:44.995765,877.6537057715705,-16715.308078198697,-5305.794903418293,False
-4.0,4.0,816.2313,284.8432,9677.486,1.573537,0.05254393,1.618747,628.0,2024-01-12 16:23:45.116286,3793.407787854399,9811.221280938591,2184.6732104778494,False
-1.0,1.0,184.3103,248.9386,9586.528,0.1035371,1.522544,-0.6912529,589.0,2024-01-12 16:23:45.356720,-2628.251412029913,-149.33245714000523,-378.3075604947742,False
-5.0,3.0,1048.414,567.2927,9974.298,-3.186463,-1.837456,1.268747,526.0,2024-01-12 16:23:45.595758,3614.9218952635147,1331.8137701955336,1622.2106945339253,False
-1.0,3.0,330.3223,615.1655,9758.87,-1.506463,-2.677456,-0.2012529,478.0,2024-01-12 16:23:45.776355,-3976.2105682818647,265.08081529593505,-1192.8658837079236,False
-6.0,-1.0,1084.319,-299.205,9407.005,-1.646463,-2.397456,-2.931253,435.0,2024-01-12 16:23:45.956584,4183.548152628045,-5073.381642244034,-1952.3217684168562,False
1.0,5.0,-363.8333,962.2433,10409.94,0.2435371,2.992544,6.728747,379.0,2024-01-12 16:23:46.196174,-6044.29358487416,5265.029007888476,4186.046996953134,False
-5.0,0.0,981.3924,-81.38376,9687.062,-2.206463,0.2625439,1.268747,333.0,2024-01-12 16:23:46.375799,7489.078357689631,-5810.032345163535,-4024.372999304109,False
0.0,5.0,844.955,655.8574,9840.254,-0.6664629,3.832544,4.838747,279.0,2024-01-12 16:23:46.616031,-567.9401578474138,3068.8715907955643,637.6835725465421,False
1.0,1.0,-244.1513,172.3421,9122.162,0.2435371,2.012544,0.2887471,231.0,2024-01-12 16:23:46.797089,-6015.23434479559,-2670.499508444808,-3966.0882148261912,False
1.0,0.0,-284.8432,45.47916,9553.018,-0.5964629,1.102544,4.908747,184.0,2024-01-12 16:23:47.036313,-170.09957194930288,-530.3102531518576,1801.056750158846,False
4.0,-4.0,-785.114,-844.955,9936.0,0.943537,2.082544,-1.601253,141.0,2024-01-12 16:23:47.215772,-2787.6606912999628,-4961.769317782891,2134.09190957266,False
-7.0,1.0,1326.077,272.875,10529.62,-0.9464629,0.05254393,2.038747,86.0,2024-01-12 16:23:47.456392,8773.963095337045,4645.6238051699775,2467.043471033168,False
-1.0,-1.0,-181.9166,-397.3442,10014.99,-0.1764629,2.082544,-4.401253,51.0,2024-01-12 16:23:47.636428,-8376.067008820459,-3722.6954609078184,-2858.4838587838044,False
45.0,-63.0,-8734.393,-7760.181,3927.963,-16.06646,59.34254,70.28874,40.0,2024-01-12 16:23:47.816508,-47492.64993336295,-40886.47712127943,-33801.793647267885,True
-30.0,20.0,5419.201,4258.286,9117.375,-0.3864629,0.1225439,17.78875,40.0,2024-01-12 16:23:47.996535,78619.28488504502,66759.24722402751,28825.74280524588,True
-30.0,20.0,5419.201,4258.286,9117.375,-0.3864629,0.1225439,17.78875,40.0,2024-01-12 16:23:47.996535,78619.28488504502,66759.24722402751,28825.74280524588,True
-30.0,20.0,5419.201,4258.286,9117.375,-0.3864629,0.1225439,17.78875,40.0,2024-01-12 16:23:47.996535,78619.28488504502,66759.24722402751,28825.74280524588,True
0.0,5.0,138.8311,967.0306,9584.135,-1.226463,-1.137456,0.07874714,40.0,2024-01-12 16:23:48.236415,-22012.547523761878,-13720.424378856094,1945.80623645156,True
0.0,0.0,110.1074,-38.29824,10637.34,-0.806463,0.05254393,2.668747,78.0,2024-01-12 16:23:48.416535,-159.46979791250274,-5581.439262713747,5847.240728403286,True
0.0,0.0,110.1074,-38.29824,10637.34,-0.806463,0.05254393,2.668747,78.0,2024-01-12 16:23:48.416535,-159.46979791250274,-5581.439262713747,5847.240728403286,True
-14.0,12.0,2901.092,2410.396,10723.51,-5.706463,5.862544,166.3288,103.0,2024-01-12 16:23:48.596156,15538.18651493979,13632.561003446146,479.7323252849058,True
2.0,-14.0,-438.0361,-2551.62,9880.946,-1.296463,-7.647456,184.1087,180.0,2024-01-12 16:23:48.776198,-18546.38417702536,-27560.324813099163,-4679.819153308674,True
2.0,-14.0,-438.0361,-2551.62,9880.946,-1.296463,-7.647456,184.1087,180.0,2024-01-12 16:23:48.776198,-18546.38417702536,-27560.324813099163,-4679.819153308674,False
3.0,-3.0,-562.5054,-473.9407,8669.765,1.433537,2.222544,208.3288,2000.0,2024-01-12 16:23:49.076575,-414.37693298754573,6916.905422186119,-4032.202865066235,False
-3.0,-6.0,533.7817,-971.8179,8966.575,-2.836463,-2.047456,4.838747,2000.0,2024-01-12 16:23:49.255898,6113.477356501954,-2776.4268944864853,1655.1697216754196,False
0.0,7.0,-93.35196,1263.842,9028.811,2.343537,-3.307456,3.368747,2000.0,2024-01-12 16:23:49.496072,-2611.163822895068,9308.500920166214,259.12879828790363,False
2.0,5.0,-409.3124,983.7861,9447.697,1.783537,-0.1574561,-0.5512529,2000.0,2024-01-12 16:23:49.676245,-1753.65032496545,-1554.3721867316417,2324.9099476614165,False
1.0,1.0,35.9046,366.2269,10211.27,0.5935371,1.242544,-1.741253,2000.0,2024-01-12 16:23:49.916428,1853.6574195509259,-2571.2027912050394,3179.1300799806827,False
-3.0,-2.0,588.8354,-473.9407,9629.614,-0.806463,1.732544,1.478747,2000.0,2024-01-12 16:23:50.096726,3066.760585253303,-4659.883082452384,-3226.0812654605197,False
-4.0,0.0,1022.084,14.36184,10192.12,0.5235371,0.962544,-1.601253,2000.0,2024-01-12 16:23:50.275889,2418.181209289864,2725.465302545727,3139.632625039775,False
-2.0,-1.0,421.2806,-198.6721,9811.53,-1.296463,-2.327456,-0.5512529,2000.0,2024-01-12 16:23:50.455742,-3340.5247618888757,-1184.4892217533206,-2116.1170511473265,False
-1.0,-1.0,253.7258,-234.5767,9371.101,-2.206463,2.852544,0.988747,2000.0,2024-01-12 16:23:50.695976,-697.4649716526387,-149.4567796398511,-1833.3333333333337,False
0.0,2.0,157.9802,423.6743,11137.61,1.293537,1.522544,2.808747,2000.0,2024-01-12 16:23:50.875830,-532.3517964571263,3659.918600642743,9821.905545609216,False
-1.0,4.0,294.4177,859.3168,10654.09,-0.3164629,-1.557456,3.508747,2000.0,2024-01-12 16:23:51.115724,568.7407771765864,1815.9791407871808,-2015.5568709513386,False
1.0,0.0,-258.5131,35.9046,9251.419,1.433537,-1.627456,0.2187471,2000.0,2024-01-12 16:23:51.295722,-3071.8719096878863,-4574.5630507005635,-7792.70325225836,False
-3.0,7.0,660.6447,1452.939,10668.45,2.833537,-2.747456,4.138747,2000.0,2024-01-12 16:23:51.475851,5102.775233305019,7866.775477574404,7866.756602212863,False
-1.0,0.0,256.1195,23.9364,10433.88,0.8735371,4.742544,-0.1312529,2000.0,2024-01-12 16:23:51.655922,-2246.4761122001873,-7935.773111717045,-1302.6528424899152,False
0.0,1.0,-35.9046,186.7039,9452.484,1.153537,-1.627456,3.228747,2000.0,2024-01-12 16:23:51.895987,-1216.437631474809,678.014287797055,-4088.042821735775,False
0.0,-3.0,4.78728,-478.728,9028.811,-0.1764629,1.592544,0.5687471,2000.0,2024-01-12 16:23:52.076023,226.02079584083185,-3696.104667955298,-2353.268235241844,False
7.0,-2.0,-1280.597,-421.2806,9964.724,-3.046463,2.432544,2.318747,2000.0,2024-01-12 16:23:52.316053,-5355.09844602758,239.33424988543106,3899.1501062367224,False
0.0,0.0,-347.0778,-519.4199,10017.38,0.3835371,-0.2274561,3.088747,2000.0,2024-01-12 16:23:52.496109,5184.604789621007,-545.0487626071888,292.44235126848895,False
-2.0,2.0,442.8234,351.8651,9969.511,2.273537,-2.327456,0.1487471,2000.0,2024-01-12 16:23:52.676138,4387.633103555539,4839.69249398708,-265.89605008081355,False
-3.0,1.0,567.2927,260.9068,9849.829,-0.3164629,-0.6474561,-0.5512529,2000.0,2024-01-12 16:23:52.856237,691.115997312589,-505.04611352644935,-664.5345060216919,False
-3.0,0.0,739.6348,639.1019,9347.164,1.223537,-4.917456,-2.791253,2000.0,2024-01-12 16:23:53.096448,717.4613152603339,1574.4287314069713,-2092.5977578045927,False
-2.0,3.0,473.9407,670.2192,10046.11,2.063537,-3.237456,0.5687471,2000.0,2024-01-12 16:23:53.276475,-1475.8569547901152,172.8479616946347,3882.4509656884798,False
4.0,0.0,-332.716,347.0778,10079.62,1.713537,-1.627456,-0.2712529,2000.0,2024-01-12 16:23:53.455590,-4503.568657008068,-1804.1001591156519,187.086508667617,False
-5.0,4.0,876.0723,734.8475,9411.793,3.743537,-0.2274561,-0.8312529,2000.0,2024-01-12 16:23:53.636769,6671.790328901253,2140.257424977508,-3686.0066564005824,False
-2.0,-4.0,344.6842,-765.9648,9282.536,2.203537,-1.347456,0.1487471,2000.0,2024-01-12 16:23:53.816898,-2950.0419144057873,-8331.874934075024,-717.5801786497433,False
-5.0,-1.0,327.9287,631.921,9811.53,1.223537,-3.517456,-0.6912529,2000.0,2024-01-12 16:23:53.996107,-93.4969783883621,7800.310252275276,2951.8271961787664,False
3.0,3.0,-569.6863,562.5054,10072.44,0.5935371,-3.237456,-1.951253,2000.0,2024-01-12 16:23:54.175833,-4994.352514383006,-386.23015033996217,1451.7098249557653,False
-4.0,1.0,-90.95832,172.3421,10680.42,0.6635371,-0.7874561,-3.421253,665.0,2024-01-12 16:23:54.416865,1986.159431112881,-1618.7199210063397,2522.40366424375,False
0.0,1.0,-119.682,284.8432,10161.0,-0.5964629,-3.937456,-4.331253,2000.0,2024-01-12 16:23:54.595893,-160.44238890006034,628.3994682396052,-2901.333869562304,False
1.0,4.0,-213.034,691.762,9481.208,2.413537,-1.557456,-2.161253,2000.0,2024-01-12 16:23:54.775925,-518.5300391041592,2260.2581763242088,-3775.950942054743,False
0.0,-1.0,-892.8278,-478.728,11135.21,2.973537,0.8225439,1.128747,341.0,2024-01-12 16:23:54.955957,-3775.9609402772844,-6501.566388197654,9187.266708140767,False
2.0,-1.0,-514.6326,-256.1195,11393.73,2.203537,-2.257456,-7.411253,290.0,2024-01-12 16:23:55.135861,2102.2056207755245,1237.3738215937387,1436.9886161508384,False
0.0,-3.0,-64.62828,-359.046,9215.514,-0.806463,0.962544,-1.041253,286.0,2024-01-12 16:23:55.315540,2504.4903411083096,-572.8354454332447,-12122.819027265292,False
-5.0,3.0,909.5832,512.239,8870.83,1.783537,-3.167456,0.5687471,208.0,2024-01-12 16:23:55.496575,5381.343276162068,4812.798630099152,-1903.9633220095523,False
0.0,0.0,69.41556,-59.841,9464.453,-0.3164629,1.032544,-9.651253,242.0,2024-01-12 16:23:55.736411,-3503.0922797244784,-2385.2966193565608,2475.1204990076535,False
0.0,7.0,-35.9046,1120.224,8578.806,-1.086463,-2.257456,-3.001253,106.0,2024-01-12 16:23:55.915920,-586.7124211042343,6573.848664969443,-4933.719200708594,False
-1.0,-6.0,217.8212,-1041.233,8748.754,-1.226463,-0.997456,-7.131253,68.0,2024-01-12 16:23:56.095951,1409.345057240142,-12006.02673983925,943.9929789869541,False
-2.0,0.0,368.6206,294.4177,9533.868,0.8735371,-4.217456,-0.7612529,44.0,2024-01-12 16:23:56.275983,837.6255332385355,7418.962739957341,4360.969161038035,True
21.0,0.0,-4160.146,74.20284,10678.03,10.88354,1.522544,10.99875,40.0,2024-01-12 16:23:56.517609,-18742.87783599447,-911.387267926465,4735.260278281312,True
3.0,8.0,-710.9111,1845.496,12255.44,19.77354,-14.99746,4.348747,40.0,2024-01-12 16:23:56.636647,28975.914413884635,14880.064853240143,13251.314706228262,True
3.0,-7.0,-435.6425,-983.7861,7889.438,-0.246463,-13.66746,18.20875,95.0,2024-01-12 16:23:56.816237,1532.7612896040985,-15754.118269391394,-24310.941589175345,True
3.0,-7.0,-435.6425,-983.7861,7889.438,-0.246463,-13.66746,18.20875,95.0,2024-01-12 16:23:56.816237,1532.7612896040985,-15754.118269391394,-24310.941589175345,True
-1.0,-1.0,315.9605,177.1294,8839.713,1.083537,-1.067456,2.738747,61.0,2024-01-12 16:23:57.053901,3162.4604483640774,4884.692254611553,3998.396896458865,True
-1.0,-1.0,315.9605,177.1294,8839.713,1.083537,-1.067456,2.738747,61.0,2024-01-12 16:23:57.053901,3162.4604483640774,4884.692254611553,3998.396896458865,True
9.0,26.0,-1340.438,3705.355,7492.093,-0.246463,-9.047457,-171.7713,94.0,2024-01-12 16:23:57.235944,-9098.940909565323,19381.275852408497,-7402.7564915981375,True
9.0,26.0,-1340.438,3705.355,7492.093,-0.246463,-9.047457,-171.7713,94.0,2024-01-12 16:23:57.235944,-9098.940909565323,19381.275852408497,-7402.7564915981375,True
-3.0,0.0,514.6326,-129.2566,9407.005,0.5935371,-2.397456,-184.0213,2000.0,2024-01-12 16:23:57.416466,10276.146951618086,-21241.79656773136,10607.637850234318,True
-3.0,0.0,514.6326,-129.2566,9407.005,0.5935371,-2.397456,-184.0213,2000.0,2024-01-12 16:23:57.416466,10276.146951618086,-21241.79656773136,10607.637850234318,False
6.0,4.0,-1110.649,722.8793,10318.98,-1.436463,-11.35746,-164.8412,892.0,2024-01-12 16:23:57.716547,-5416.142974730155,2839.6862847031302,3039.0961107167745,False
0.0,2.0,-52.66008,406.9188,9316.047,-1.856463,2.012544,-0.4112529,867.0,2024-01-12 16:23:57.895710,5905.175287308204,-1763.536556096962,-5597.88014266338,False
5.0,-3.0,-1132.192,-600.8036,11032.29,-0.3864629,3.482544,-1.671253,825.0,2024-01-12 16:23:58.076000,-5987.7526207776355,-5589.452548671584,9519.346608242278,False
-1.0,2.0,402.1315,426.0679,10484.14,1.503537,-7.227456,-5.451253,787.0,2024-01-12 16:23:58.256648,8493.443049466365,5684.37790620433,-3034.354103006961,False
0.0,2.0,-69.41556,454.7916,9928.819,-1.016463,-1.207456,-1.181253,744.0,2024-01-12 16:23:58.436166,-2626.7397141233746,160.0045677870743,-3093.400104724874,False
-3.0,-3.0,588.8354,-227.3958,9351.951,0.5935371,-3.447456,1.898747,702.0,2024-01-12 16:23:58.615928,3661.791479845574,-3794.9477642660854,-3209.065319700495,False
-2.0,0.0,382.9824,-86.17104,9713.392,0.453537,0.7525439,-2.091253,661.0,2024-01-12 16:23:58.795996,-1143.1959037696872,784.2857142857143,2007.2472621454156,False
1.0,0.0,-227.3958,148.4057,10670.85,0.1035371,1.382544,4.698747,606.0,2024-01-12 16:23:59.035628,-2547.1481271282632,978.9040695733457,3995.5348200574235,False
-6.0,3.0,1079.532,528.9944,9103.013,0.2435371,-1.767456,0.8487472,571.0,2024-01-12 16:23:59.215657,7259.540407378811,2114.0410711607574,-8708.80247071305,False
3.0,0.0,-655.8574,107.7138,10807.29,-2.976463,3.202544,-2.371253,525.0,2024-01-12 16:23:59.395805,-9633.13164731221,-2338.524990563315,9460.426982259032,False
0.0,3.0,-818.6249,-43.08552,10426.7,-2.416463,3.272544,-0.2012529,482.0,2024-01-12 16:23:59.575975,-903.4106677027254,-836.9835155686297,-2112.3938502525402,False
1.0,4.0,-203.4594,753.9966,10053.29,2.693537,-1.417456,-2.441253,439.0,2024-01-12 16:23:59.756550,3406.7035857676865,4414.133296414231,-2067.894226775577,False
0.0,3.0,-126.8629,720.4857,10393.19,-0.736463,1.662544,-0.9012529,393.0,2024-01-12 16:23:59.935982,426.88316465290467,-186.76100138213914,1894.3109367336908,False
-2.0,-2.0,459.5789,-387.7697,9337.59,0.453537,-2.747456,-0.6212529,351.0,2024-01-12 16:24:00.116163,3254.7371809458264,-6150.789483907848,-5858.553343582288,False
-2.0,0.0,390.1633,26.33004,8899.554,-0.4564629,-2.467456,4.278747,303.0,2024-01-12 16:24:00.296354,-385.2334467315237,2298.1155551609127,-2430.953821223036,False
-2.0,-8.0,375.8015,-1113.043,7700.34,2.483537,0.5425439,0.3587471,265.0,2024-01-12 16:24:00.475982,-79.9530140067251,-6342.95900416416,-6676.097267686551,False
-3.0,1.0,694.1556,213.034,9974.298,-1.226463,2.012544,6.518747,208.0,2024-01-12 16:24:00.716536,1323.4205209641082,5512.595924407825,9453.004315039454,False
0.0,4.0,119.682,672.6129,9067.108,1.293537,-0.997456,-1.181253,171.0,2024-01-12 16:24:00.895621,-3207.82645112656,2566.2612725800595,-5065.695061004554,False
0.0,2.0,167.5548,495.4835,9854.616,0.1735371,1.102544,-2.861253,130.0,2024-01-12 16:24:01.075820,265.66629115588876,-982.9654992536028,4370.212931259329,False
-3.0,5.0,574.4736,962.2433,9495.57,-4.166463,1.942544,2.738747,92.0,2024-01-12 16:24:01.256975,2246.24658441666,2576.576964477933,-1981.9822803676425,False
2.0,1.0,-397.3442,303.9923,10455.42,-6.616463,2.432544,-6.991253,48.0,2024-01-12 16:24:01.436590,-5410.560365225621,-3664.7885755644015,5343.930072655404,False
4.0,-28.0,-761.1776,-4583.821,8289.176,-18.37646,-43.34746,34.02875,40.0,2024-01-12 16:24:01.616144,-2026.3174309678425,-27221.968321507735,-12064.582242667948,True
3.0,34.0,-749.2094,6831.449,9907.276,18.93354,16.36254,-17.84125,40.0,2024-01-12 16:24:01.796683,66.29149380466284,63228.8314436216,8962.606417449972,True
3.0,34.0,-749.2094,6831.449,9907.276,18.93354,16.36254,-17.84125,40.0,2024-01-12 16:24:01.796683,66.29149380466284,63228.8314436216,8962.606417449972,True
3.0,0.0,-622.3464,38.29824,10165.79,-0.4564629,12.79254,1.338747,40.0,2024-01-12 16:24:01.975711,708.620997832741,-37944.627432580375,1443.9864155327716,True
3.0,0.0,-622.3464,38.29824,10165.79,-0.4564629,12.79254,1.338747,40.0,2024-01-12 16:24:01.975711,708.620997832741,-37944.627432580375,1443.9864155327716,True
-3.0,0.0,548.1436,167.5548,9782.807,2.273537,0.6825439,1.968747,62.0,2024-01-12 16:24:02.156742,6465.688197049124,714.002353188128,-2115.565842314301,True
-3.0,0.0,548.1436,167.5548,9782.807,2.273537,0.6825439,1.968747,62.0,2024-01-12 16:24:02.156742,6465.688197049124,714.002353188128,-2115.565842314301,True
-2.0,-1.0,440.4298,-280.0559,10594.25,-6.196463,-15.06746,-180.3112,92.0,2024-01-12 16:24:02.396306,-449.6243175101434,-1868.4389140271494,3387.165851296519,True
-2.0,-1.0,440.4298,-280.0559,10594.25,-6.196463,-15.06746,-180.3112,92.0,2024-01-12 16:24:02.396306,-449.6243175101434,-1868.4389140271494,3387.165851296519,True
0.0,0.0,-64.62828,-71.8092,9744.509,-4.866463,-0.2274561,-172.5412,1902.0,2024-01-12 16:24:02.636927,-2098.977562224411,865.4552179568699,-3531.449873452442,True
0.0,0.0,-64.62828,-71.8092,9744.509,-4.866463,-0.2274561,-172.5412,1902.0,2024-01-12 16:24:02.636927,-2098.977562224411,865.4552179568699,-3531.449873452442,False
-2.0,-8.0,411.7061,-1665.974,11484.68,-9.416463,-15.90746,-194.1712,2000.0,2024-01-12 16:24:02.995647,1327.872379571811,-4444.036574487065,4851.056534344337,False
-6.0,0.0,1249.48,71.8092,10871.91,-0.3864629,-1.067456,-3.141253,2000.0,2024-01-12 16:24:03.175812,4650.03691060972,9645.509394166458,-3401.1600477340244,False
-3.0,4.0,663.0383,763.5712,9782.807,2.903537,-0.4374561,-2.861253,2000.0,2024-01-12 16:24:03.416200,-2439.5631229512287,2877.6894021332178,-4530.604689085974,False
-9.0,4.0,1742.57,880.8596,10330.95,1.573537,-1.627456,-2.091253,2000.0,2024-01-12 16:24:03.595880,6008.079363312556,652.7626892252895,3050.662288512912,False
-1.0,0.0,323.1414,-138.8311,9339.983,-0.3164629,-2.117456,0.2187471,2000.0,2024-01-12 16:24:03.775525,-7901.297559074842,-5676.1429485930585,-5516.251496006015,False
-5.0,-2.0,947.8815,-418.887,9667.912,-0.03646295,-1.697456,3.928747,1196.0,2024-01-12 16:24:03.956793,3446.499657965002,-1544.982567248494,1809.0837875410998,False
-4.0,1.0,780.3267,208.2467,9660.731,1.013537,-3.307456,-3.561253,1152.0,2024-01-12 16:24:04.135981,-935.0782418465523,3499.864388240284,-40.07522825189463,False
0.0,-1.0,-71.8092,-184.3103,10450.63,0.3835371,-0.577456,0.07874714,2000.0,2024-01-12 16:24:04.376329,-3545.425383194368,-1633.2859021086092,3286.4804367001157,False
-3.0,8.0,629.5273,1627.675,10371.64,-1.646463,0.05254393,0.6387471,2000.0,2024-01-12 16:24:04.614719,2941.9711397290157,7600.92831075129,-331.34779143420354,False
-1.0,2.0,332.716,426.0679,10055.68,-1.086463,-0.4374561,-0.2012529,614.0,2024-01-12 16:24:04.736257,-2442.127565041386,-9886.67824055028,-2599.6807582813535,False
0.0,3.0,19.14912,593.6227,9038.385,1.363537,-0.2974561,-2.931253,801.0,2024-01-12 16:24:04.915872,-1745.7722350583194,932.8552737800295,-5663.75302730841,False
-6.0,0.0,1189.639,-35.9046,10637.34,-3.956463,1.452544,3.438747,765.0,2024-01-12 16:24:05.095921,6500.951851995846,-3496.4220850990564,8880.665818749341,False
2.0,1.0,-371.0142,253.7258,8964.182,-0.1764629,-0.1574561,-3.281253,901.0,2024-01-12 16:24:05.276512,-8641.92124745973,1603.7919940639345,-9264.902459148016,False
0.0,-3.0,-9.57456,-627.1337,11068.19,-2.346463,-0.6474561,-0.2012529,2000.0,2024-01-12 16:24:05.456541,2007.6745413238978,-4892.875592265691,11687.05041965461,False
-1.0,7.0,205.853,1326.077,9646.369,-2.906463,1.522544,3.158747,2000.0,2024-01-12 16:24:05.696576,897.4839502572542,8137.191242943738,-5923.390338908909,False
-1.0,3.0,167.5548,473.9407,8815.776,-3.396463,1.312544,1.968747,2000.0,2024-01-12 16:24:05.875772,-213.72240451795804,-4755.33103417487,-4635.109042612563,False
0.0,-1.0,124.4693,-227.3958,8696.095,-2.486463,-0.4374561,3.578747,2000.0,2024-01-12 16:24:06.055967,-239.10485862537806,-3892.097449984739,-664.1749216127001,False
-1.0,2.0,205.853,497.8771,9979.085,-1.506463,0.2625439,-0.1312529,2000.0,2024-01-12 16:24:06.236486,450.83176840111014,4017.7094931835422,7107.229709892032,False
-3.0,0.0,512.239,-129.2566,8672.158,-1.436463,2.152544,-2.441253,2000.0,2024-01-12 16:24:06.416086,1705.935412026726,-3491.83574610245,-7276.87639198218,False
-4.0,-2.0,902.4023,-505.058,10780.96,-2.626463,-2.817456,6.868747,2000.0,2024-01-12 16:24:06.596270,2165.3604093593212,-2085.653554144652,11703.602983616745,False
-2.0,1.0,399.7379,220.2149,9675.093,-1.156463,2.152544,-3.771253,2000.0,2024-01-12 16:24:06.776479,-2789.3412648646845,4024.620856893939,-6136.580303980369,False
1.0,-1.0,-248.9386,-225.0022,8643.435,-1.366463,-1.697456,1.128747,2000.0,2024-01-12 16:24:07.016551,-2702.0081475557336,-1854.5148955313405,-4297.285814255729,True
-17.0,4.0,2261.99,607.9846,7286.24,-12.77646,29.94254,-10.07125,106.0,2024-01-12 16:24:07.196788,13931.260506999115,4621.619312349851,-7530.057646321231,True
27.0,-23.0,-643.8892,-493.0898,1151.341,-18.65646,15.24254,-70.48125,57.0,2024-01-12 16:24:07.316299,-24314.742575997185,-9213.1636418405,-51333.34170076394,True
-16.0,15.0,3147.637,2783.803,10196.91,-1.226463,6.072544,15.96875,51.0,2024-01-12 16:24:07.496329,21060.524357051603,18201.926345609067,50244.786979947785,True
-16.0,15.0,3147.637,2783.803,10196.91,-1.226463,6.072544,15.96875,51.0,2024-01-12 16:24:07.496329,21060.524357051603,18201.926345609067,50244.786979947785,True
2.0,-2.0,-500.2708,-414.0997,9991.054,2.553537,1.452544,-1.881253,136.0,2024-01-12 16:24:07.676362,-20262.439663839406,-17762.869585020522,-1143.4348147284097,True
2.0,-2.0,-500.2708,-414.0997,9991.054,2.553537,1.452544,-1.881253,136.0,2024-01-12 16:24:07.676362,-20262.439663839406,-17762.869585020522,-1143.4348147284097,True
-8.0,24.0,2259.596,6357.508,13655.72,-8.366463,21.61254,149.1087,2000.0,2024-01-12 16:24:07.855959,15366.9983351615,37704.45887180743,20404.939948885556,True
-8.0,24.0,2259.596,6357.508,13655.72,-8.366463,21.61254,149.1087,2000.0,2024-01-12 16:24:07.855959,15366.9983351615,37704.45887180743,20404.939948885556,True
-2.0,2.0,402.1315,327.9287,8339.442,-0.5264629,5.442544,178.6488,2000.0,2024-01-12 16:24:08.096548,-7720.488052238465,-25061.741392998014,-22096.928787267916,True
-2.0,2.0,402.1315,327.9287,8339.442,-0.5264629,5.442544,178.6488,2000.0,2024-01-12 16:24:08.096548,-7720.488052238465,-25061.741392998014,-22096.928787267916,False
5.0,-10.0,-986.1797,-1831.135,9703.816,-3.536463,6.422544,170.6687,2000.0,2024-01-12 16:24:08.336174,-5793.658451086277,-9010.139550799997,5693.764449600634,False
-2.0,1.0,466.7598,174.7357,9988.66,4.163537,-0.6474561,-0.8312529,2000.0,2024-01-12 16:24:08.516357,8063.688028282357,11132.408162812251,1580.8594595494533,False
-4.0,0.0,785.114,21.54276,10005.42,-1.226463,0.2625439,-0.6212529,1505.0,2024-01-12 16:24:08.696502,1767.2108579200092,-850.3868550334454,93.03616531127824,False
-2.0,0.0,550.5372,86.17104,11898.78,3.603537,-3.307456,1.828747,1459.0,2024-01-12 16:24:08.875722,-1308.8762414909054,360.6086374288584,10564.445932373623,False
-8.0,2.0,1342.832,361.4396,9519.507,-0.736463,0.4025439,4.628747,1424.0,2024-01-12 16:24:09.056799,4375.457954350913,1520.1740695947028,-13139.564936463501,False
-2.0,-1.0,318.3541,-244.1513,8964.182,0.03353706,-3.027456,0.2887471,1400.0,2024-01-12 16:24:09.235868,-5721.134869798793,-3381.885753536346,-3101.178875182186,False
-5.0,4.0,832.9868,744.4221,9119.769,-1.296463,-0.7874561,2.808747,1362.0,2024-01-12 16:24:09.415935,2858.006741934946,5490.03093293052,864.0506033865146,False
-1.0,-1.0,220.2149,-299.205,10218.45,1.993537,-2.397456,-4.051253,1327.0,2024-01-12 16:24:09.596027,-3402.5492526042244,-5794.9664615863,6100.665215556496,False
0.0,6.0,-122.0756,1271.023,10924.57,-0.1764629,0.1225439,4.068747,1294.0,2024-01-12 16:24:09.776184,-1899.956704430025,8715.886698823802,3919.4702398463505,False
3.0,2.0,-670.2192,397.3442,9591.315,0.6635371,0.1225439,0.9187471,2000.0,2024-01-12 16:24:09.955823,-3051.3618980288247,-4863.5251810575655,-7421.857169100247,False
-4.0,0.0,866.4977,146.012,10208.88,0.03353706,-1.067456,0.07874714,605.0,2024-01-12 16:24:10.136346,8512.582330229388,-1392.2447555159176,3420.9768284373667,False
4.0,2.0,23.9364,507.4517,9445.304,2.553537,-2.257456,0.8487472,593.0,2024-01-12 16:24:10.316481,-4677.388070058567,2006.4934632359066,-4238.909706608927,False
3.0,6.0,-584.0482,1050.808,9562.592,-0.3864629,4.882544,-0.06125287,593.0,2024-01-12 16:24:10.495773,-3391.0302746357897,3030.5663387100367,654.1730807844212,False
-1.0,3.0,169.9484,538.569,9557.805,1.993537,0.4025439,6.448747,593.0,2024-01-12 16:24:10.675813,4187.939346811819,-2845.139968895801,-26.588535880916805,False
0.0,2.0,-16.75548,368.6206,8224.547,0.1035371,-0.8574561,0.6387471,593.0,2024-01-12 16:24:10.916040,-777.1977338101046,-707.4492042942715,-5549.992298950575,False
-3.0,-4.0,533.7817,-852.1359,9849.829,-1.296463,-1.697456,4.488747,593.0,2024-01-12 16:24:11.096074,3057.9622737927284,-6780.699756712621,9027.639223702185,False
-4.0,1.0,753.9966,169.9484,8945.033,-2.626463,2.712544,2.458747,593.0,2024-01-12 16:24:11.336359,916.4737707305906,4253.63339367834,-3765.5117880849834,False
-4.0,-3.0,849.7422,-603.1973,10780.96,-1.506463,-0.577456,2.948747,593.0,2024-01-12 16:24:11.516535,531.4004084894774,-4291.058187549951,10189.631249444985,False
-1.0,1.0,265.694,272.875,9720.572,-0.3864629,2.782544,4.348747,323.0,2024-01-12 16:24:11.756588,-2432.9968798556984,3649.495319783548,-4417.307844517665,False
3.0,0.0,-234.5767,143.6184,10668.45,1.503537,0.892544,0.9187471,297.0,2024-01-12 16:24:11.936108,-2786.712901069519,-720.0122549019607,5280.069073083782,False
-4.0,4.0,732.4539,663.0383,8633.859,3.253537,-3.097456,0.3587471,297.0,2024-01-12 16:24:12.175858,4033.495724713243,2166.5063607924926,-8486.302398331598,False
-3.0,-1.0,519.4199,-272.875,9641.582,-0.806463,-2.187456,-1.461253,297.0,2024-01-12 16:24:12.356441,-1179.7013007868957,-5182.732040114518,5580.3868581206425,False
-1.0,0.0,181.9166,-86.17104,9627.221,-3.536463,2.432544,-0.06125287,2000.0,2024-01-12 16:24:12.596195,-1407.7066493155482,778.7313663171417,-59.89889636878127,False
-1.0,-4.0,205.853,-804.2631,9538.655,-3.396463,2.502544,-1.391253,2000.0,2024-01-12 16:24:12.776223,132.95931743950953,-3988.779856466772,-491.9568067189487,False
-1.0,7.0,201.0658,1321.289,10752.23,2.483537,0.962544,-1.601253,2000.0,2024-01-12 16:24:12.955793,-26.659241521412333,11836.899816227653,6758.2279890850305,False
1.0,-1.0,-208.2467,-330.3223,10828.83,2.133537,2.152544,3.858747,1910.0,2024-01-12 16:24:13.196421,-1701.0177535448909,-6863.7535947603765,318.33369350200456,True
-15.0,1.0,2168.638,217.8212,7583.052,17.81354,17.76254,43.54875,1889.0,2024-01-12 16:24:13.376611,13190.991175980911,3042.030634330429,-18013.086186802822,True
-12.0,20.0,1783.262,2858.006,7834.384,-9.836463,-34.87746,29.05875,1889.0,2024-01-12 16:24:13.495995,-3228.0372579240097,22115.06399517523,2105.240233197081,True
-12.0,20.0,1783.262,2858.006,7834.384,-9.836463,-34.87746,29.05875,1889.0,2024-01-12 16:24:13.495995,-3228.0372579240097,22115.06399517523,2105.240233197081,True
11.0,0.0,-1934.061,126.8629,9126.949,-0.736463,6.212544,2.318747,61.0,2024-01-12 16:24:13.735597,-15514.574168829975,-11398.665703959065,5394.633600721198,True
11.0,0.0,-1934.061,126.8629,9126.949,-0.736463,6.212544,2.318747,61.0,2024-01-12 16:24:13.735597,-15514.574168829975,-11398.665703959065,5394.633600721198,True
11.0,0.0,-1934.061,126.8629,9126.949,-0.736463,6.212544,2.318747,61.0,2024-01-12 16:24:13.735597,-15514.574168829975,-11398.665703959065,5394.633600721198,True
-5.0,2.0,940.7006,375.8015,9763.658,0.453537,-0.4374561,0.5687471,114.0,2024-01-12 16:24:13.976801,11918.38277972173,1032.066632394156,2639.7116134060752,True
-13.0,8.0,2661.728,1713.846,11362.61,-6.546463,-8.977456,123.2087,128.0,2024-01-12 16:24:14.155995,9604.269116153442,7467.016194738663,8923.021976182245,True
-13.0,8.0,2661.728,1713.846,11362.61,-6.546463,-8.977456,123.2087,128.0,2024-01-12 16:24:14.155995,9604.269116153442,7467.016194738663,8923.021976182245,True
-2.0,-1.0,438.0361,-174.7357,9914.457,-0.1764629,-1.907456,191.4588,121.0,2024-01-12 16:24:14.336039,-12350.824798382619,-10489.556441758681,-8043.328297527272,True
-2.0,-1.0,438.0361,-174.7357,9914.457,-0.1764629,-1.907456,191.4588,121.0,2024-01-12 16:24:14.336039,-12350.824798382619,-10489.556441758681,-8043.328297527272,False
2.0,4.0,-450.0043,840.1677,9639.188,2.343537,2.572544,197.1987,2000.0,2024-01-12 16:24:14.636361,-2956.9608620081112,3379.3841277029323,-916.5795379625877,False
5.0,1.0,-861.7104,253.7258,9545.837,-1.226463,0.1925439,3.788747,2000.0,2024-01-12 16:24:14.875774,-1719.6480558699823,-2449.498982929081,-389.9161699657102,False
-1.0,0.0,241.7576,112.5011,10723.51,-0.246463,3.832544,-1.321253,2000.0,2024-01-12 16:24:15.055959,6124.083580764214,-783.776118988817,6535.910314399093,False
3.0,-1.0,-761.1776,-234.5767,10910.21,-0.5964629,0.612544,1.338747,1623.0,2024-01-12 16:24:15.356059,-3342.0033322225927,-1156.5404865044984,622.1259580139917,False
-2.0,6.0,335.1096,1024.478,8772.69,1.083537,1.032544,-3.911253,1573.0,2024-01-12 16:24:15.536129,6088.1168434497695,6992.029210862443,-11870.494807574823,False
0.0,-1.0,122.0756,-198.6721,10108.34,0.6635371,-3.867456,3.088747,1516.0,2024-01-12 16:24:15.776430,-886.5298105292945,-5090.074947669798,5558.237377289315,False
0.0,-6.0,-55.05372,-1041.233,9158.066,5.353537,-4.497456,5.818747,1482.0,2024-01-12 16:24:15.956375,-984.3525521687183,-4682.324599183084,-5280.913612492704,False
-4.0,-4.0,823.4122,-725.2729,9919.244,-1.856463,-5.617456,-1.741253,1441.0,2024-01-12 16:24:16.136437,4878.685786007042,1754.7294820672873,4227.31059301796,False
-2.0,-4.0,481.1216,-787.5076,10302.23,-0.03646295,-3.657456,2.878747,1403.0,2024-01-12 16:24:16.315511,-1911.4477813641286,-347.53621407909566,2138.702435864497,False
-3.0,4.0,485.9089,777.933,9198.759,-0.03646295,-1.767456,2.598747,1361.0,2024-01-12 16:24:16.556179,19.891718051423606,6504.564794654877,-4585.034154935428,False
2.0,0.0,-466.7598,107.7138,9892.914,-1.016463,3.482544,-0.6212529,1286.0,2024-01-12 16:24:16.795723,-3977.0092342116686,-2797.8960024045687,2897.8183548742636,False
-7.0,2.0,1294.959,430.8552,9497.964,2.063537,-1.137456,1.198747,1239.0,2024-01-12 16:24:16.976756,9731.478791159623,1784.9861627438092,-2181.6464401517997,False
0.0,0.0,117.2884,-153.193,10390.79,1.783537,-0.01745607,1.828747,1183.0,2024-01-12 16:24:17.215883,-4924.875066387318,-2442.4184638288443,3733.6896293601344,False
-2.0,2.0,430.8552,330.3223,8968.969,2.693537,-2.327456,16.31875,1153.0,2024-01-12 16:24:17.396028,1740.6355991007247,2684.0339726331567,-7892.647589441848,True
-9.0,-9.0,1539.111,-1596.558,9483.602,1.783537,1.522544,14.21875,1105.0,2024-01-12 16:24:17.636071,4616.905304466283,-8027.229704677912,2143.9200476581345,True
-7.0,0.0,1194.426,112.5011,9679.88,-0.246463,-1.347456,2.738747,1077.0,2024-01-12 16:24:17.815996,-1915.7148812005012,9498.730582187021,1090.887869945802,True
-7.0,0.0,1194.426,112.5011,9679.88,-0.246463,-1.347456,2.738747,1077.0,2024-01-12 16:24:17.815996,-1915.7148812005012,9498.730582187021,1090.887869945802,True
-12.0,-10.0,3049.497,-2563.588,13852.0,3.463537,-15.13746,-27.29125,1071.0,2024-01-12 16:24:18.056231,7721.901471475846,-11139.46385830541,17366.828313942602,True
-12.0,-10.0,3049.497,-2563.588,13852.0,3.463537,-15.13746,-27.29125,1071.0,2024-01-12 16:24:18.056231,7721.901471475846,-11139.46385830541,17366.828313942602,True
6.0,-4.0,-1172.884,-727.6666,10266.32,0.6635371,2.432544,-2.021253,1100.0,2024-01-12 16:24:18.236296,-23449.204453947183,10195.88148724072,-19913.253547330132,True
6.0,-4.0,-1172.884,-727.6666,10266.32,0.6635371,2.432544,-2.021253,1100.0,2024-01-12 16:24:18.236296,-23449.204453947183,10195.88148724072,-19913.253547330132,True
6.0,13.0,-1385.918,3008.805,12403.84,-6.056463,-24.23746,-78.32126,1136.0,2024-01-12 16:24:18.416437,-1182.595855468771,20741.927712181012,11865.81622173742,True
-17.0,-23.0,4693.928,-6096.601,13969.28,-3.956463,-21.15746,-48.57125,1141.0,2024-01-12 16:24:18.596658,33735.50252190366,-50523.557188119026,8686.22413592201,True
-17.0,-23.0,4693.928,-6096.601,13969.28,-3.956463,-21.15746,-48.57125,1141.0,2024-01-12 16:24:18.596658,33735.50252190366,-50523.557188119026,8686.22413592201,False
5.0,2.0,-787.5076,315.9605,8449.55,-3.676463,-0.08745607,-152.2413,1165.0,2024-01-12 16:24:18.954238,-15329.256669836119,17933.221936349906,-15436.349907712964,False
-33.0,6.0,5445.531,904.796,8037.843,-14.45646,21.19254,6.098747,40.0,2024-01-12 16:24:19.075753,51294.39657655433,4845.784471052957,-3388.116693412331,True
-13.0,0.0,4140.997,59.841,16695.64,-11.09646,-34.80746,-19.66125,40.0,2024-01-12 16:24:19.316356,-5421.935719837241,-3511.822379604577,35983.745007335725,True
2.0,-2.0,-524.2072,-526.6008,11039.47,-8.716463,-30.18746,-27.01125,40.0,2024-01-12 16:24:19.435888,-39028.91443295519,-4906.148981026002,-47319.29525148078,True
2.0,-2.0,-524.2072,-526.6008,11039.47,-8.716463,-30.18746,-27.01125,40.0,2024-01-12 16:24:19.435888,-39028.91443295519,-4906.148981026002,-47319.29525148078,True
9.0,-4.0,-2470.237,-988.5734,14120.08,1.293537,-28.92746,-3.001253,40.0,2024-01-12 16:24:19.616468,-10776.552220622441,-2558.2711263705837,17059.530402037883,True
-1.0,2.0,347.0778,505.058,9976.691,-0.736463,1.242544,8.898747,58.0,2024-01-12 16:24:19.796102,15683.638954763577,8314.859102397097,-23065.728091563957,True
-1.0,2.0,347.0778,505.058,9976.691,-0.736463,1.242544,8.898747,58.0,2024-01-12 16:24:19.796102,15683.638954763577,8314.859102397097,-23065.728091563957,True
-12.0,31.0,3396.575,7736.245,12533.1,-4.236463,-6.877456,138.4688,107.0,2024-01-12 16:24:19.976296,16923.411434342986,40130.00987824234,14186.981808495288,True
-12.0,31.0,3396.575,7736.245,12533.1,-4.236463,-6.877456,138.4688,107.0,2024-01-12 16:24:19.976296,16923.411434342986,40130.00987824234,14186.981808495288,True
6.0,5.0,-1046.021,911.9769,9495.57,6.473537,-7.997456,195.0988,1151.0,2024-01-12 16:24:20.156330,-24676.427785862666,-37905.44063899041,-16871.979737160764,True
6.0,5.0,-1046.021,911.9769,9495.57,6.473537,-7.997456,195.0988,1151.0,2024-01-12 16:24:20.156330,-24676.427785862666,-37905.44063899041,-16871.979737160764,False
-1.0,11.0,186.7039,2036.988,9770.839,6.473537,4.672544,164.9987,2000.0,2024-01-12 16:24:20.516633,3421.356191871841,3122.4028109674364,763.9930835990825,False
-4.0,4.0,751.603,713.3047,9524.294,1.223537,-1.627456,2.878747,2000.0,2024-01-12 16:24:20.695686,3154.9267535310773,-7392.689873947938,-1376.9386717899174,False
2.0,3.0,-445.217,488.3026,9253.813,0.5235371,0.472544,8.548747,755.0,2024-01-12 16:24:20.875731,-6647.338165458635,-1249.6992418562027,-1502.2966480602058,False
0.0,0.0,-21.54276,110.1074,9830.68,1.503537,0.1925439,1.898747,717.0,2024-01-12 16:24:21.056949,2337.9258131090733,-2086.962663753049,3183.2764957123477,False
-2.0,0.0,459.5789,-38.29824,10357.28,-2.836463,0.2625439,6.378747,687.0,2024-01-12 16:24:21.236085,2685.7899026438013,-828.4523490532333,2939.6659521257616,False
-5.0,2.0,856.9232,399.7379,8581.199,1.223537,0.962544,-0.2012529,2000.0,2024-01-12 16:24:21.416181,2206.2916444562898,2432.236918088131,-9861.857009594883,False
-5.0,0.0,1010.116,-38.29824,9677.486,-0.4564629,-2.047456,1.058747,2000.0,2024-01-12 16:24:21.596327,850.3813573434883,-2431.5618442818604,6085.547278318699,False
4.0,0.0,-854.5295,-9.57456,10828.83,-2.976463,1.452544,1.128747,978.0,2024-01-12 16:24:21.836392,-7767.252619082332,119.64959490138088,4795.967758732007,False
-1.0,2.0,289.6304,387.7697,10132.28,0.6635371,-3.657456,4.628747,938.0,2024-01-12 16:24:22.015534,6386.888055285752,2218.0407721249067,-3888.2562436502844,False
-6.0,2.0,1067.563,349.4714,9466.847,-2.206463,-0.2274561,0.8487472,2000.0,2024-01-12 16:24:22.196647,4295.288576744906,-211.46080071557526,-3674.131619486182,False
1.0,0.0,-169.9484,-81.38376,9004.874,-1.156463,4.252544,3.158747,2000.0,2024-01-12 16:24:22.435886,-5172.699267259937,-1800.9403149152104,-1931.01041218196,False
-3.0,5.0,694.1556,1089.106,10405.15,3.603537,0.1925439,10.43875,2000.0,2024-01-12 16:24:22.616079,4795.436004728264,6495.755994960959,7770.978894851631,False
1.0,-1.0,-169.9484,-222.6085,8638.646,-1.436463,0.472544,4.768747,2000.0,2024-01-12 16:24:22.796105,-4799.8844611333925,-7286.250319398309,-9812.493750902642,False
-4.0,-4.0,701.3365,-703.7302,10003.02,-1.086463,-2.327456,-4.751253,402.0,2024-01-12 16:24:23.036308,3627.2856708700556,-2002.979563119528,5680.087259526316,False
-6.0,0.0,1062.776,90.95832,9596.103,2.343537,-5.337456,-0.7612529,366.0,2024-01-12 16:24:23.215336,2018.8992783251786,4438.906316330406,-2272.9237884576787,False
-10.0,9.0,1943.636,1881.401,10804.89,2.273537,-5.127456,11.90875,329.0,2024-01-12 16:24:23.456046,3659.4242033982796,7438.173237505713,5021.756470441611,False
-7.0,2.0,1290.172,512.239,10132.28,-0.5264629,-3.447456,3.018747,329.0,2024-01-12 16:24:23.636162,-3628.0174998334405,-7601.556774523086,-3734.315663239239,False
0.0,-2.0,129.2566,-473.9407,10407.55,-1.506463,0.892544,4.138747,525.0,2024-01-12 16:24:23.815788,-6462.958591740617,-5490.183492367474,1532.461893044429,False
-6.0,2.0,1220.756,394.9506,10211.27,-1.856463,-0.577456,4.908747,525.0,2024-01-12 16:24:23.995946,6058.567479656746,4822.940418965574,-1089.4881159870715,False
-4.0,1.0,694.1556,198.6721,9485.995,0.453537,-0.997456,6.028747,125.0,2024-01-12 16:24:24.175973,-2925.119009926289,-1090.2725702255773,-4028.7012503679985,False
-1.0,0.0,172.3421,141.2248,9404.611,2.553537,-2.957456,5.608747,503.0,2024-01-12 16:24:24.416339,-2170.912275446611,-238.99927610394155,-338.58365991862416,False
2.0,1.0,-351.8651,227.3958,9933.606,1.223537,-0.997456,0.7087471,52.0,2024-01-12 16:24:24.595888,-2919.5773855604875,479.9302697313827,2946.2430868453685,True
39.0,-37.0,-1697.091,-1235.118,1630.069,-2.276463,28.12254,-2.721253,40.0,2024-01-12 16:24:24.835439,-5615.61379413987,-6105.2293666066935,-34662.91937833698,True
-19.0,-5.0,4045.252,-1067.563,11365.0,-11.23646,-26.12746,12.25875,40.0,2024-01-12 16:24:24.895958,94884.96174755035,2768.6346436656227,160857.43320279583,True
-13.0,-16.0,2379.278,-2745.505,9512.325,-0.5264629,15.24254,-24.77125,40.0,2024-01-12 16:24:25.015572,-13927.918136672966,-14027.97331416055,-15488.780577524365,True
-13.0,-16.0,2379.278,-2745.505,9512.325,-0.5264629,15.24254,-24.77125,40.0,2024-01-12 16:24:25.015572,-13927.918136672966,-14027.97331416055,-15488.780577524365,True
14.0,-1.0,-2161.457,-256.1195,8430.4,-2.976463,8.872543,1.548747,53.0,2024-01-12 16:24:25.255636,-18914.68525059984,10369.674336843509,-4506.819014929357,True
14.0,-1.0,-2161.457,-256.1195,8430.4,-2.976463,8.872543,1.548747,53.0,2024-01-12 16:24:25.255636,-18914.68525059984,10369.674336843509,-4506.819014929357,True
-4.0,4.0,842.5613,844.955,10340.53,0.6635371,1.872544,-191.5112,294.0,2024-01-12 16:24:25.436195,16637.322426464478,6098.142435436617,10578.979724079116,True
0.0,0.0,21.54276,45.47916,8621.892,-4.656463,-4.567456,-194.1712,294.0,2024-01-12 16:24:25.616227,-4560.4033727337355,-4440.742979025951,-9546.291770351942,True
0.0,0.0,21.54276,45.47916,8621.892,-4.656463,-4.567456,-194.1712,294.0,2024-01-12 16:24:25.616227,-4560.4033727337355,-4440.742979025951,-9546.291770351942,False
-2.0,-1.0,502.6644,-241.7576,10026.96,-5.286463,-8.487456,-174.7112,2000.0,2024-01-12 16:24:25.855774,2008.4644766997708,-1199.08310268966,5865.521171210657,False
0.0,6.0,-95.74561,1098.681,10161.0,-0.9464629,-0.6474561,13.44875,1097.0,2024-01-12 16:24:26.035969,-3320.902411276673,7438.822386858681,743.8608174477698,False
0.0,-2.0,-67.02192,-528.9944,10462.6,-0.5264629,-0.9274561,1.198747,1053.0,2024-01-12 16:24:26.216061,159.4945361259801,-9038.02167780912,1674.699597983255,False
-1.0,6.0,165.1612,842.5613,7741.032,0.1035371,0.6825439,1.058747,1020.0,2024-01-12 16:24:26.396137,1289.361825007219,7616.538017281591,-15113.440991581332,False
0.0,0.0,-126.8629,64.62828,9263.387,-1.436463,2.432544,4.278747,983.0,2024-01-12 16:24:26.576273,-1621.1312563840654,-4318.5871785761865,8451.14247013368,False
0.0,0.0,78.99012,55.05372,10082.01,1.643537,-0.2274561,5.328747,943.0,2024-01-12 16:24:26.756326,1143.2912531310226,-53.17634252136874,4546.566844206982,False
0.0,5.0,-146.012,988.5734,10699.57,3.673537,0.6825439,3.088747,898.0,2024-01-12 16:24:26.936370,-1249.7062940170179,5184.953011486081,3430.050432116591,False
2.0,3.0,-461.9725,612.7719,9639.188,0.8735371,1.102544,2.178747,867.0,2024-01-12 16:24:27.115948,-1759.4610698415177,-2092.692311975855,-5904.854714942809,False
0.0,0.0,95.74561,-2.39364,9940.787,-1.576463,-0.2974561,1.478747,819.0,2024-01-12 16:24:27.354487,2338.0583887750013,-2578.88873517538,1264.3592871605908,False
-8.0,1.0,1429.003,260.9068,9107.801,0.03353706,-0.7174561,4.488747,774.0,2024-01-12 16:24:27.476635,10915.097995873857,2155.5853554704127,-6819.481284998533,False
2.0,2.0,-531.3881,368.6206,10163.4,3.813537,3.412544,0.2887471,738.0,2024-01-12 16:24:27.655948,-10932.788476016796,600.7026819025951,5886.907251565699,False
1.0,-1.0,-282.4495,-205.853,10441.06,1.153537,0.7525439,1.898747,702.0,2024-01-12 16:24:27.895591,1038.789365848366,-2397.2058436924926,1158.6401438806886,False
3.0,-5.0,-586.4418,-928.7324,9576.954,-0.4564629,-1.417456,1.898747,654.0,2024-01-12 16:24:28.136209,-1263.3813762893878,-3004.2615265690847,-3591.194341237978,False
-3.0,-3.0,643.8892,-490.6962,9203.546,0.943537,1.942544,12.11875,607.0,2024-01-12 16:24:28.316398,6828.002819261997,2430.9819134353374,-2072.312960280591,False
-1.0,-5.0,327.9287,-1026.872,10129.88,-1.996463,1.032544,1.478747,2000.0,2024-01-12 16:24:28.496505,-1754.293281216166,-2976.9847923734233,5143.242627993353,False
4.0,2.0,-660.6447,426.0679,9215.514,3.253537,0.5425439,0.3587471,2000.0,2024-01-12 16:24:28.676092,-5504.704683523863,8090.451424657687,-5091.493259534376,False
-1.0,2.0,205.853,411.7061,9567.379,-0.246463,-1.417456,2.878747,2000.0,2024-01-12 16:24:28.915737,3615.755388178347,-59.929479021052046,1468.2759915708718,False
-2.0,1.0,385.376,153.193,8562.051,2.693537,0.3325439,-0.9012529,2000.0,2024-01-12 16:24:29.096287,994.31182497923,-1431.8089171974523,-5568.1417889781305,False
2.0,1.0,-548.1436,363.8333,10730.69,-4.866463,7.262544,3.368747,429.0,2024-01-12 16:24:29.275840,-5199.13117575312,1173.1371795514417,12077.98811492986,False
-1.0,8.0,232.1831,1527.142,10017.38,-0.3864629,-1.207456,-1.811253,2000.0,2024-01-12 16:24:29.455871,4334.401853014203,6461.713260494026,-3962.150962889732,False
-4.0,3.0,727.6666,555.3245,9636.795,-0.736463,-0.997456,2.808747,2000.0,2024-01-12 16:24:29.696170,2061.945742595683,-4044.2011826932285,-1583.7976853836226,False
-2.0,3.0,375.8015,706.1238,10453.03,3.393537,0.2625439,7.708747,2000.0,2024-01-12 16:24:29.936691,-1462.9288087110897,626.9693706578636,3393.612200182107,False
0.0,3.0,-126.8629,473.9407,8806.202,0.8035371,0.962544,3.998747,2000.0,2024-01-12 16:24:30.116036,-2802.779001366082,-1294.617078814575,-9182.458390253429,False
4.0,0.0,-1053.202,-28.72368,12580.97,4.023537,7.402544,5.608747,2000.0,2024-01-12 16:24:30.296359,-5137.11007469929,-2787.5777355079495,20933.369564614608,False
-3.0,2.0,531.3881,399.7379,9134.131,1.223537,-4.637456,0.4287471,2000.0,2024-01-12 16:24:30.476065,8817.680544889987,2384.2363638387146,-19180.43359709748,False
19.0,-24.0,-2549.227,-3023.167,6582.51,-8.926463,-20.24746,-91.83125,2000.0,2024-01-12 16:24:30.655430,-17175.118334123155,-19083.460541354223,-14225.857887547734,True
-20.0,-1.0,6745.278,-471.5471,17720.12,0.1035371,-30.04746,-28.06125,2000.0,2024-01-12 16:24:30.895963,38641.28830555475,10608.190560131041,46303.87514395114,True
-22.0,-28.0,5146.326,-6972.673,11453.57,-13.96646,16.50254,10.57875,81.0,2024-01-12 16:24:31.015988,-13321.824619870862,-54164.764840658194,-52210.37283899187,True
17.0,16.0,-2652.153,2491.779,8260.452,8.643538,6.072544,-22.88125,73.0,2024-01-12 16:24:31.195660,-43403.97502114965,52676.27677100494,-17771.92884812325,True
17.0,16.0,-2652.153,2491.779,8260.452,8.643538,6.072544,-22.88125,73.0,2024-01-12 16:24:31.195660,-43403.97502114965,52676.27677100494,-17771.92884812325,True
17.0,16.0,-2652.153,2491.779,8260.452,8.643538,6.072544,-22.88125,73.0,2024-01-12 16:24:31.195660,-43403.97502114965,52676.27677100494,-17771.92884812325,True
0.0,0.0,-98.13924,157.9802,9284.93,-0.806463,-2.047456,-0.8312529,126.0,2024-01-12 16:24:31.435322,10656.732231225642,-9737.87584181055,4274.678505562004,True
-20.0,-2.0,5287.551,-548.1436,13852.0,-15.64646,-26.40746,122.7187,2000.0,2024-01-12 16:24:31.555838,44688.59105844868,-5859.1705665637755,37895.964021374755,True
0.0,-3.0,40.69188,-497.8771,8748.754,-5.146463,12.65254,177.2487,2000.0,2024-01-12 16:24:31.735440,-29213.812318348348,279.8771728599904,-28414.193605861845,True
0.0,-3.0,40.69188,-497.8771,8748.754,-5.146463,12.65254,177.2487,2000.0,2024-01-12 16:24:31.735440,-29213.812318348348,279.8771728599904,-28414.193605861845,False
-3.0,-3.0,643.8892,-646.2828,9414.187,-1.086463,2.572544,171.0188,2000.0,2024-01-12 16:24:31.976498,2502.291232815339,-615.6431232317532,2760.468434982449,False
0.0,0.0,9.57456,-21.54276,9500.357,2.483537,-7.297456,6.378747,2000.0,2024-01-12 16:24:32.156019,-3533.3729201597585,3480.0387698375116,479.99955436968423,False
-1.0,2.0,215.4276,411.7061,9835.467,-0.3164629,1.802544,-3.141253,764.0,2024-01-12 16:24:32.396071,857.5352007065137,1804.8125406161998,1395.9892023394957,False
